pos,corr_resp,trials.thisRepN,trials.thisTrialN,trials.thisN,trials.thisIndex,trials_2.thisRepN,trials_2.thisTrialN,trials_2.thisN,trials_2.thisIndex,thisRow.t,notes,trial_2.started,fixxation.started,line_1.started,line_2.started,line_3.started,line_4.started,fixxation.stopped,probe.started,key_resp.started,trial_2.stopped,key_resp.keys,key_resp.corr,key_resp.rt,key_resp.duration,participant,session,date,expName,psychopyVersion,frameRate,expStart,
-50,x,0,0,0,0,,,,,0.046369199990294874,,0.023546900018118322,0.046369199990294874,1.0307609000010416,1.0307609000010416,1.0307609000010416,1.0307609000010416,1.0512223000405356,2.0155305999796838,2.0155305999796838,146.9673314000247,x,1,144.92687630001456,None,tots,001,2024-10-17_14h35.01.876,Motor_sequence_task,2024.1.5,None,2024-10-17 14h35.17.260868 +0530,
150,v,0,1,1,1,,,,,146.9877500999719,,146.9701914000325,146.9877500999719,147.97294520004652,147.97294520004652,147.97294520004652,147.97294520004652,147.98925470001996,148.9731895000441,148.9731895000441,149.90987590001896,v,1,0.9203528000507504,None,tots,001,2024-10-17_14h35.01.876,Motor_sequence_task,2024.1.5,None,2024-10-17 14h35.17.260868 +0530,
50,c,0,2,2,2,,,,,149.92288800003007,,149.91062800004147,149.92288800003007,150.92383780004457,150.92383780004457,150.92383780004457,150.92383780004457,150.92383780004457,151.92467850004323,151.92467850004323,152.56110300007276,c,1,0.6241502999328077,None,tots,001,2024-10-17_14h35.01.876,Motor_sequence_task,2024.1.5,None,2024-10-17 14h35.17.260868 +0530,
-150,z,0,3,3,3,,,,,152.57426420005504,,152.56188489997294,152.57426420005504,153.57500179996714,153.57500179996714,153.57500179996714,153.57500179996714,153.57500179996714,154.57537770003546,154.57537770003546,155.14542089996394,z,1,0.5664850999601185,None,tots,001,2024-10-17_14h35.01.876,Motor_sequence_task,2024.1.5,None,2024-10-17 14h35.17.260868 +0530,
-50,x,1,0,4,0,,,,,155.15865960007068,,155.14683820004575,155.15865960007068,156.1591255000094,156.1591255000094,156.1591255000094,156.1591255000094,156.1591255000094,157.15947700000834,157.15947700000834,157.71243209997192,x,1,0.5375568000599742,None,tots,001,2024-10-17_14h35.01.876,Motor_sequence_task,2024.1.5,None,2024-10-17 14h35.17.260868 +0530,
150,v,1,1,5,1,,,,,157.7270320999669,,157.7131389999995,157.7270320999669,158.727360400022,158.727360400022,158.727360400022,158.727360400022,158.727360400022,159.7272780999774,159.7272780999774,160.16412810003385,v,1,0.43468820000998676,None,tots,001,2024-10-17_14h35.01.876,Motor_sequence_task,2024.1.5,None,2024-10-17 14h35.17.260868 +0530,
50,c,1,2,6,2,,,,,160.17738130001817,,160.1648188000545,160.17738130001817,161.17832589999307,161.17832589999307,161.17832589999307,161.17832589999307,161.17832589999307,162.17817820003256,162.17817820003256,162.7157989999978,c,1,0.5351721999468282,None,tots,001,2024-10-17_14h35.01.876,Motor_sequence_task,2024.1.5,None,2024-10-17 14h35.17.260868 +0530,
-150,z,1,3,7,3,,,,,162.7282052000519,,162.71652670006733,162.7282052000519,163.72874599997886,163.72874599997886,163.72874599997886,163.72874599997886,163.72874599997886,164.72888010006864,164.72888010006864,165.26681559998542,z,1,0.5263283000094816,None,tots,001,2024-10-17_14h35.01.876,Motor_sequence_task,2024.1.5,None,2024-10-17 14h35.17.260868 +0530,
-50,x,2,0,8,0,,,,,165.27928750007413,,165.26753940002527,165.27928750007413,166.2794710000744,166.2794710000744,166.2794710000744,166.2794710000744,166.2794710000744,167.27968300005887,167.27968300005887,167.73457149998285,x,1,0.43951130006462336,None,tots,001,2024-10-17_14h35.01.876,Motor_sequence_task,2024.1.5,None,2024-10-17 14h35.17.260868 +0530,
150,v,2,1,9,1,,,,,167.74656640004832,,167.7353421000298,167.74656640004832,168.74835070001427,168.74835070001427,168.74835070001427,168.74835070001427,168.74835070001427,169.7480171000352,169.7480171000352,170.28487029997632,v,1,0.5292234000517055,None,tots,001,2024-10-17_14h35.01.876,Motor_sequence_task,2024.1.5,None,2024-10-17 14h35.17.260868 +0530,
50,c,2,2,10,2,,,,,170.29771109996364,,170.2856106000254,170.29771109996364,171.29889169998933,171.29889169998933,171.29889169998933,171.29889169998933,171.29889169998933,172.2984571000561,172.2984571000561,172.80176429997664,c,1,0.49522070004604757,None,tots,001,2024-10-17_14h35.01.876,Motor_sequence_task,2024.1.5,None,2024-10-17 14h35.17.260868 +0530,
-150,z,2,3,11,3,,,,,172.81547220004722,,172.80250900005922,172.81547220004722,173.8160549000604,173.8160549000604,173.8160549000604,173.8160549000604,173.8160549000604,174.8162134999875,174.8162134999875,175.28590899996925,z,1,0.46159680001437664,None,tots,001,2024-10-17_14h35.01.876,Motor_sequence_task,2024.1.5,None,2024-10-17 14h35.17.260868 +0530,
-50,x,3,0,12,0,,,,,175.30008020007517,,175.2866428999696,175.30008020007517,176.30029980000108,176.30029980000108,176.30029980000108,176.30029980000108,176.30029980000108,177.30074980005156,177.30074980005156,177.937302300008,x,1,0.6256344999419525,None,tots,001,2024-10-17_14h35.01.876,Motor_sequence_task,2024.1.5,None,2024-10-17 14h35.17.260868 +0530,
150,v,3,1,13,1,,,,,177.95097070001066,,177.9383942000568,177.95097070001066,178.95152600004803,178.95152600004803,178.95152600004803,178.95152600004803,178.95152600004803,179.95240930002183,179.95240930002183,180.58850960002746,v,1,0.6270050999009982,None,tots,001,2024-10-17_14h35.01.876,Motor_sequence_task,2024.1.5,None,2024-10-17 14h35.17.260868 +0530,
50,c,3,2,14,2,,,,,180.60163920000196,,180.58922009996604,180.60163920000196,181.60238349996507,181.60238349996507,181.60238349996507,181.60238349996507,181.60238349996507,182.6026780999964,182.6026780999964,183.1236169000622,c,1,0.5054336000466719,None,tots,001,2024-10-17_14h35.01.876,Motor_sequence_task,2024.1.5,None,2024-10-17 14h35.17.260868 +0530,
-150,z,3,3,15,3,,,,,183.13646680000238,,183.12433929997496,183.13646680000238,184.13667460007127,184.13667460007127,184.13667460007127,184.13667460007127,184.13667460007127,185.1374247999629,185.1374247999629,185.60724769998342,z,1,0.4688681000843644,None,tots,001,2024-10-17_14h35.01.876,Motor_sequence_task,2024.1.5,None,2024-10-17 14h35.17.260868 +0530,
-50,x,4,0,16,0,,,,,185.6212454000488,,185.60797850007657,185.6212454000488,186.62121400004253,186.62121400004253,186.62121400004253,186.62121400004253,186.62121400004253,187.62108080007602,187.62108080007602,188.09147049998865,x,1,0.4589715999318287,None,tots,001,2024-10-17_14h35.01.876,Motor_sequence_task,2024.1.5,None,2024-10-17 14h35.17.260868 +0530,
150,v,4,1,17,1,,,,,188.10542280005757,,188.09222320001572,188.10542280005757,189.1062241999898,189.1062241999898,189.1062241999898,189.1062241999898,189.1062241999898,190.10636690002866,190.10636690002866,190.59235359996092,v,1,0.4762051000725478,None,tots,001,2024-10-17_14h35.01.876,Motor_sequence_task,2024.1.5,None,2024-10-17 14h35.17.260868 +0530,
50,c,4,2,18,2,,,,,190.6059583000606,,190.5931738000363,190.6059583000606,191.60677800001577,191.60677800001577,191.60677800001577,191.60677800001577,191.60677800001577,192.6065779000055,192.6065779000055,193.14385400002357,c,1,0.5352212999714538,None,tots,001,2024-10-17_14h35.01.876,Motor_sequence_task,2024.1.5,None,2024-10-17 14h35.17.260868 +0530,
-150,z,4,3,19,3,,,,,193.1565310000442,,193.14454710006248,193.1565310000442,194.15735570003744,194.15735570003744,194.15735570003744,194.15735570003744,194.15735570003744,195.15746470005251,195.15746470005251,195.71084519999567,z,1,0.5379681000486016,None,tots,001,2024-10-17_14h35.01.876,Motor_sequence_task,2024.1.5,None,2024-10-17 14h35.17.260868 +0530,
-50,x,5,0,20,0,,,,,195.72464480006602,,195.7115788999945,195.72464480006602,196.7255550000118,196.7255550000118,196.7255550000118,196.7255550000118,196.7255550000118,197.72603919997346,197.72603919997346,198.09725720004644,x,1,0.36757120001129806,None,tots,001,2024-10-17_14h35.01.876,Motor_sequence_task,2024.1.5,None,2024-10-17 14h35.17.260868 +0530,
150,v,5,1,21,1,,,,,198.10878030001186,,198.0984701999696,198.10878030001186,199.113326300052,199.113326300052,199.113326300052,199.113326300052,199.113326300052,200.10947170003783,200.10947170003783,200.64553029998206,v,1,0.525040200096555,None,tots,001,2024-10-17_14h35.01.876,Motor_sequence_task,2024.1.5,None,2024-10-17 14h35.17.260868 +0530,
50,c,5,2,22,2,,,,,200.65923540003132,,200.64622770005371,200.65923540003132,201.66012170002796,201.66012170002796,201.66012170002796,201.66012170002796,201.66012170002796,202.66239820001647,202.66239820001647,203.21421160001773,c,1,0.5386883999453858,None,tots,001,2024-10-17_14h35.01.876,Motor_sequence_task,2024.1.5,None,2024-10-17 14h35.17.260868 +0530,
-150,z,5,3,23,3,,,,,203.22796819999348,,203.21491069998592,203.22796819999348,204.22798219998367,204.22798219998367,204.22798219998367,204.22798219998367,204.22798219998367,205.22880460007582,205.22880460007582,205.6830665000016,z,1,0.45027639996260405,None,tots,001,2024-10-17_14h35.01.876,Motor_sequence_task,2024.1.5,None,2024-10-17 14h35.17.260868 +0530,
-50,x,6,0,24,0,,,,,205.6957062999718,,205.68375950003974,205.6957062999718,206.69575920002535,206.69575920002535,206.69575920002535,206.69575920002535,206.69575920002535,207.69633830001112,207.69633830001112,208.11579409998376,x,1,0.4049352000001818,None,tots,001,2024-10-17_14h35.01.876,Motor_sequence_task,2024.1.5,None,2024-10-17 14h35.17.260868 +0530,
150,v,6,1,25,1,,,,,208.12949760002084,,208.11651960003655,208.12949760002084,209.13027720001992,209.13027720001992,209.13027720001992,209.13027720001992,209.13027720001992,210.11524790001567,210.11524790001567,210.65233199996874,v,1,0.5290918999817222,None,tots,001,2024-10-17_14h35.01.876,Motor_sequence_task,2024.1.5,None,2024-10-17 14h35.17.260868 +0530,
50,c,6,2,26,2,,,,,210.66347460006364,,210.65364170004614,210.66347460006364,211.66426700004376,211.66426700004376,211.66426700004376,211.66426700004376,211.66426700004376,212.6655556000769,212.6655556000769,213.16937750007492,c,1,0.4869643999263644,None,tots,001,2024-10-17_14h35.01.876,Motor_sequence_task,2024.1.5,None,2024-10-17 14h35.17.260868 +0530,
-150,z,6,3,27,3,,,,,213.1816968000494,,213.17061390005983,213.1816968000494,214.18200300005265,214.18200300005265,214.18200300005265,214.18200300005265,214.18200300005265,215.18332810001448,215.18332810001448,215.63599540002178,z,1,0.4494176999432966,None,tots,001,2024-10-17_14h35.01.876,Motor_sequence_task,2024.1.5,None,2024-10-17 14h35.17.260868 +0530,
-50,x,7,0,28,0,,,,,215.64899470005184,,215.63676540006418,215.64899470005184,216.6496610000031,216.6496610000031,216.6496610000031,216.6496610000031,216.6496610000031,217.649549499969,217.649549499969,218.13669640000444,x,1,0.4737231000326574,None,tots,001,2024-10-17_14h35.01.876,Motor_sequence_task,2024.1.5,None,2024-10-17 14h35.17.260868 +0530,
150,v,7,1,29,1,,,,,218.14984249998815,,218.13741490000393,218.14984249998815,219.15046879998408,219.15046879998408,219.15046879998408,219.15046879998408,219.15046879998408,220.1511566999834,220.1511566999834,220.67075040005147,v,1,0.5150346000446007,None,tots,001,2024-10-17_14h35.01.876,Motor_sequence_task,2024.1.5,None,2024-10-17 14h35.17.260868 +0530,
50,c,7,2,30,2,,,,,220.68423480005004,,220.67149580002297,220.68423480005004,221.68504150002263,221.68504150002263,221.68504150002263,221.68504150002263,221.68504150002263,222.68465539999306,222.68465539999306,223.22215629997663,c,1,0.5204420000081882,None,tots,001,2024-10-17_14h35.01.876,Motor_sequence_task,2024.1.5,None,2024-10-17 14h35.17.260868 +0530,
-150,z,7,3,31,3,,,,,223.2357447000686,,223.2228943000082,223.2357447000686,224.23628239997197,224.23628239997197,224.23628239997197,224.23628239997197,224.23628239997197,225.2362983999774,225.2362983999774,225.7221871999791,z,1,0.47959420003462583,None,tots,001,2024-10-17_14h35.01.876,Motor_sequence_task,2024.1.5,None,2024-10-17 14h35.17.260868 +0530,
-50,x,8,0,32,0,,,,,225.73594310006592,,225.72292019997258,225.73594310006592,226.73656059999485,226.73656059999485,226.73656059999485,226.73656059999485,226.73656059999485,227.737140799989,227.737140799989,228.2236888000043,x,1,0.4741890999721363,None,tots,001,2024-10-17_14h35.01.876,Motor_sequence_task,2024.1.5,None,2024-10-17 14h35.17.260868 +0530,
150,v,8,1,33,1,,,,,228.23751900007483,,228.22442770004272,228.23751900007483,229.23761670000385,229.23761670000385,229.23761670000385,229.23761670000385,229.23761670000385,230.23817670007702,230.23817670007702,230.74129280005582,v,1,0.491315699997358,None,tots,001,2024-10-17_14h35.01.876,Motor_sequence_task,2024.1.5,None,2024-10-17 14h35.17.260868 +0530,
50,c,8,2,34,2,,,,,230.7548183000181,,230.74205050000455,230.7548183000181,231.75514210003894,231.75514210003894,231.75514210003894,231.75514210003894,231.75514210003894,232.77158960001543,232.77158960001543,233.56052120006643,c,1,0.7833309998968616,None,tots,001,2024-10-17_14h35.01.876,Motor_sequence_task,2024.1.5,None,2024-10-17 14h35.17.260868 +0530,
-150,z,8,3,35,3,,,,,233.5724024999654,,233.56127289996948,233.5724024999654,234.57283810002264,234.57283810002264,234.57283810002264,234.57283810002264,234.57283810002264,235.57347090006806,235.57347090006806,236.29391770006623,z,1,0.7168067999882624,None,tots,001,2024-10-17_14h35.01.876,Motor_sequence_task,2024.1.5,None,2024-10-17 14h35.17.260868 +0530,
-50,x,9,0,36,0,,,,,236.30705699999817,,236.29517459997442,236.30705699999817,237.30818020005245,237.30818020005245,237.30818020005245,237.30818020005245,237.30818020005245,238.3081048000604,238.3081048000604,239.6453416000586,x,1,1.3334364000475034,None,tots,001,2024-10-17_14h35.01.876,Motor_sequence_task,2024.1.5,None,2024-10-17 14h35.17.260868 +0530,
150,v,9,1,37,1,,,,,239.6583822000539,,239.64609459997155,239.6583822000539,240.65893929998856,240.65893929998856,240.65893929998856,240.65893929998856,240.65893929998856,241.65911080001388,241.65911080001388,242.37887450004928,v,1,0.7105903000338003,None,tots,001,2024-10-17_14h35.01.876,Motor_sequence_task,2024.1.5,None,2024-10-17 14h35.17.260868 +0530,
50,c,9,2,38,2,,,,,242.39281560003292,,242.37958189996425,242.39281560003292,243.3943350999616,243.3943350999616,243.3943350999616,243.3943350999616,243.3943350999616,244.3937678000657,244.3937678000657,245.84814480005298,c,1,1.4533415000187233,None,tots,001,2024-10-17_14h35.01.876,Motor_sequence_task,2024.1.5,None,2024-10-17 14h35.17.260868 +0530,
-150,z,9,3,39,3,,,,,245.8605421000393,,245.84884160000365,245.8605421000393,246.86115000001155,246.86115000001155,246.86115000001155,246.86115000001155,246.86115000001155,247.86176700005308,247.86176700005308,249.21631779999007,z,1,1.3526586999651045,None,tots,001,2024-10-17_14h35.01.876,Motor_sequence_task,2024.1.5,None,2024-10-17 14h35.17.260868 +0530,
-50,x,10,0,40,0,,,,,249.22936180001125,,249.2170468000695,249.22936180001125,250.22924660006538,250.22924660006538,250.22924660006538,250.22924660006538,250.22924660006538,251.22970610007178,251.22970610007178,251.99923249997664,x,1,0.7581756000872701,None,tots,001,2024-10-17_14h35.01.876,Motor_sequence_task,2024.1.5,None,2024-10-17 14h35.17.260868 +0530,
150,v,10,1,41,1,,,,,252.0133308999939,,251.99996340007056,252.0133308999939,253.01389010006096,253.01389010006096,253.01389010006096,253.01389010006096,253.01389010006096,253.99772620003205,253.99772620003205,254.55119490006473,v,1,0.55026180006098,None,tots,001,2024-10-17_14h35.01.876,Motor_sequence_task,2024.1.5,None,2024-10-17 14h35.17.260868 +0530,
50,c,10,2,42,2,,,,,254.56356529996265,,254.55193780001719,254.56356529996265,255.56444560003,255.56444560003,255.56444560003,255.56444560003,255.56444560003,256.5653638000367,256.5653638000367,257.135055199964,c,1,0.560701800044626,None,tots,001,2024-10-17_14h35.01.876,Motor_sequence_task,2024.1.5,None,2024-10-17 14h35.17.260868 +0530,
-150,z,10,3,43,3,,,,,257.14836800005287,,257.13575869996566,257.14836800005287,258.1492848000489,258.1492848000489,258.1492848000489,258.1492848000489,258.1492848000489,259.14968779997434,259.14968779997434,259.6199666999746,z,1,0.4604609999805689,None,tots,001,2024-10-17_14h35.01.876,Motor_sequence_task,2024.1.5,None,2024-10-17 14h35.17.260868 +0530,
-50,x,11,0,44,0,,,,,259.63259629998356,,259.6207838000264,259.63259629998356,260.6332965999609,260.6332965999609,260.6332965999609,260.6332965999609,260.6332965999609,261.63439380005,261.63439380005,262.22113269998226,x,1,0.5817026000004262,None,tots,001,2024-10-17_14h35.01.876,Motor_sequence_task,2024.1.5,None,2024-10-17 14h35.17.260868 +0530,
150,v,11,1,45,1,,,,,262.2334672000725,,262.2218389000045,262.2334672000725,263.23464809998404,263.23464809998404,263.23464809998404,263.23464809998404,263.23464809998404,264.235166199971,264.235166199971,264.7720530000515,v,1,0.533099599997513,None,tots,001,2024-10-17_14h35.01.876,Motor_sequence_task,2024.1.5,None,2024-10-17 14h35.17.260868 +0530,
50,c,11,2,46,2,,,,,264.78533049998805,,264.7727952999994,264.78533049998805,265.78593340003863,265.78593340003863,265.78593340003863,265.78593340003863,265.78593340003863,266.78537010005675,266.78537010005675,267.22303750005085,c,1,0.43093790009152144,None,tots,001,2024-10-17_14h35.01.876,Motor_sequence_task,2024.1.5,None,2024-10-17 14h35.17.260868 +0530,
-150,z,11,3,47,3,,,,,267.23617399996147,,267.2237774999812,267.23617399996147,268.2361377000343,268.2361377000343,268.2361377000343,268.2361377000343,268.2361377000343,269.23688039998524,269.23688039998524,269.7403110000305,z,1,0.48976439994294196,None,tots,001,2024-10-17_14h35.01.876,Motor_sequence_task,2024.1.5,None,2024-10-17 14h35.17.260868 +0530,
-50,x,12,0,48,0,,,,,269.75365650001913,,269.7410416000057,269.75365650001913,270.754149400047,270.754149400047,270.754149400047,270.754149400047,270.754149400047,271.754588300013,271.754588300013,273.3748041000217,x,1,1.6038347999565303,None,tots,001,2024-10-17_14h35.01.876,Motor_sequence_task,2024.1.5,None,2024-10-17 14h35.17.260868 +0530,
150,v,12,1,49,1,,,,,273.38884040003177,,273.3755336999893,273.38884040003177,274.38928880007006,274.38928880007006,274.38928880007006,274.38928880007006,274.38928880007006,275.38877499999944,275.38877499999944,278.90974190004636,v,1,3.505391399958171,None,tots,001,2024-10-17_14h35.01.876,Motor_sequence_task,2024.1.5,None,2024-10-17 14h35.17.260868 +0530,
50,c,12,2,50,2,,,,,278.9242631000234,,278.91044020000845,278.9242631000234,279.9242436999921,279.9242436999921,279.9242436999921,279.9242436999921,279.9242436999921,280.92494180006906,280.92494180006906,281.52814359997865,c,1,0.5985921000828966,None,tots,001,2024-10-17_14h35.01.876,Motor_sequence_task,2024.1.5,None,2024-10-17 14h35.17.260868 +0530,
-150,z,12,3,51,3,,,,,281.54101499996614,,281.52888360002544,281.54101499996614,282.5422553999815,282.5422553999815,282.5422553999815,282.5422553999815,282.5422553999815,283.54276480001863,283.54276480001863,284.06280569999944,z,1,0.5189142000162974,None,tots,001,2024-10-17_14h35.01.876,Motor_sequence_task,2024.1.5,None,2024-10-17 14h35.17.260868 +0530,
-50,x,13,0,52,0,,,,,284.0757353999652,,284.0635036000749,284.0757353999652,285.0765066000167,285.0765066000167,285.0765066000167,285.0765066000167,285.0765066000167,286.0770293000387,286.0770293000387,287.43026330007706,x,1,1.3386004000203684,None,tots,001,2024-10-17_14h35.01.876,Motor_sequence_task,2024.1.5,None,2024-10-17 14h35.17.260868 +0530,
150,v,13,1,53,1,,,,,287.443365400075,,287.43098960001953,287.443365400075,288.4445042000152,288.4445042000152,288.4445042000152,288.4445042000152,288.4445042000152,289.44471179996617,289.44471179996617,290.26481710001826,v,1,0.8155059000710025,None,tots,001,2024-10-17_14h35.01.876,Motor_sequence_task,2024.1.5,None,2024-10-17 14h35.17.260868 +0530,
50,c,13,2,54,2,,,,,290.2782380999997,,290.26554469997063,290.2782380999997,291.2790827000281,291.2790827000281,291.2790827000281,291.2790827000281,291.2790827000281,292.27895030006766,292.27895030006766,292.8993477000622,c,1,0.617140999995172,None,tots,001,2024-10-17_14h35.01.876,Motor_sequence_task,2024.1.5,None,2024-10-17 14h35.17.260868 +0530,
-150,z,13,3,55,3,,,,,292.9121754000662,,292.90009060001466,292.9121754000662,293.91256199998315,293.91256199998315,293.91256199998315,293.91256199998315,293.91256199998315,294.9134359000018,294.9134359000018,296.0838211000664,z,1,1.1618930000113323,None,tots,001,2024-10-17_14h35.01.876,Motor_sequence_task,2024.1.5,None,2024-10-17 14h35.17.260868 +0530,
-50,x,14,0,56,0,,,,,296.09747729997616,,296.08456220000517,296.09747729997616,297.09763880004175,297.09763880004175,297.09763880004175,297.09763880004175,297.09763880004175,298.0985505999997,298.0985505999997,298.9691699000541,c,0,0.8545603000093251,None,tots,001,2024-10-17_14h35.01.876,Motor_sequence_task,2024.1.5,None,2024-10-17 14h35.17.260868 +0530,
150,v,14,1,57,1,,,,,298.9815497000236,,298.96987300005276,298.9815497000236,299.98243830003776,299.98243830003776,299.98243830003776,299.98243830003776,299.98243830003776,300.98270559997763,300.98270559997763,301.8691278999904,v,1,0.8742930999724194,None,tots,001,2024-10-17_14h35.01.876,Motor_sequence_task,2024.1.5,None,2024-10-17 14h35.17.260868 +0530,
50,c,14,2,58,2,,,,,301.8825203999877,,301.8698779999977,301.8825203999877,302.8832785000559,302.8832785000559,302.8832785000559,302.8832785000559,302.8832785000559,303.88412379997317,303.88412379997317,304.47015579999425,c,1,0.5705939000472426,None,tots,001,2024-10-17_14h35.01.876,Motor_sequence_task,2024.1.5,None,2024-10-17 14h35.17.260868 +0530,
-150,z,14,3,59,3,,,,,304.4838413000107,,304.47089450003114,304.4838413000107,305.4842965999851,305.4842965999851,305.4842965999851,305.4842965999851,305.4842965999851,306.4848476999905,306.4848476999905,307.33843230002094,z,1,0.84791380004026,None,tots,001,2024-10-17_14h35.01.876,Motor_sequence_task,2024.1.5,None,2024-10-17 14h35.17.260868 +0530,
-50,x,15,0,60,0,,,,,307.35154609999154,,307.3391666000243,307.35154609999154,308.3522685000207,308.3522685000207,308.3522685000207,308.3522685000207,308.3522685000207,309.35286820004694,309.35286820004694,309.9742029000772,x,1,0.612111399997957,None,tots,001,2024-10-17_14h35.01.876,Motor_sequence_task,2024.1.5,None,2024-10-17 14h35.17.260868 +0530,
150,v,15,1,61,1,,,,,309.9857156999642,,309.9754516000394,309.9857156999642,310.9868567000376,310.9868567000376,310.9868567000376,310.9868567000376,310.9868567000376,311.9871131000109,311.9871131000109,312.4740909000393,v,1,0.47694660001434386,None,tots,001,2024-10-17_14h35.01.876,Motor_sequence_task,2024.1.5,None,2024-10-17 14h35.17.260868 +0530,
50,c,15,2,62,2,,,,,312.48697329999413,,312.47480850003194,312.48697329999413,313.4875526999822,313.4875526999822,313.4875526999822,313.4875526999822,313.4875526999822,314.4878474000143,314.4878474000143,314.95801559998654,c,1,0.4572947999695316,None,tots,001,2024-10-17_14h35.01.876,Motor_sequence_task,2024.1.5,None,2024-10-17 14h35.17.260868 +0530,
-150,z,15,3,63,3,,,,,314.9713330999948,,314.95872590004,314.9713330999948,315.9717452999903,315.9717452999903,315.9717452999903,315.9717452999903,315.9717452999903,316.971862000064,316.971862000064,317.44196960004047,z,1,0.46725709992460907,None,tots,001,2024-10-17_14h35.01.876,Motor_sequence_task,2024.1.5,None,2024-10-17 14h35.17.260868 +0530,
-50,x,16,0,64,0,,,,,317.4554882000666,,317.44269659998827,317.4554882000666,318.45637040003203,318.45637040003203,318.45637040003203,318.45637040003203,318.45637040003203,319.4564121000003,319.4564121000003,320.07658370002173,x,1,0.6149034999543801,None,tots,001,2024-10-17_14h35.01.876,Motor_sequence_task,2024.1.5,None,2024-10-17 14h35.17.260868 +0530,
150,v,16,1,65,1,,,,,320.09030240005814,,320.0773260999704,320.09030240005814,321.0909474999644,321.0909474999644,321.0909474999644,321.0909474999644,321.0909474999644,322.09057060000487,322.09057060000487,322.5269730000291,v,1,0.4348111000144854,None,tots,001,2024-10-17_14h35.01.876,Motor_sequence_task,2024.1.5,None,2024-10-17 14h35.17.260868 +0530,
50,c,16,2,66,2,,,,,322.540966700064,,322.52771160006523,322.540966700064,323.54112800001167,323.54112800001167,323.54112800001167,323.54112800001167,323.54112800001167,324.54157050000504,324.54157050000504,324.96260640001856,c,1,0.41522530000656843,None,tots,001,2024-10-17_14h35.01.876,Motor_sequence_task,2024.1.5,None,2024-10-17 14h35.17.260868 +0530,
-150,z,16,3,67,3,,,,,324.9751079999842,,324.96392590005416,324.9751079999842,325.97577889997046,325.97577889997046,325.97577889997046,325.97577889997046,325.97577889997046,326.9756861999631,326.9756861999631,327.495592399966,z,1,0.5041022999212146,None,tots,001,2024-10-17_14h35.01.876,Motor_sequence_task,2024.1.5,None,2024-10-17 14h35.17.260868 +0530,
-50,x,17,0,68,0,,,,,327.5094236000441,,327.4962919000536,327.5094236000441,328.5105361000169,328.5105361000169,328.5105361000169,328.5105361000169,328.5105361000169,329.51112100004684,329.51112100004684,330.0638513000449,x,1,0.5413922000443563,None,tots,001,2024-10-17_14h35.01.876,Motor_sequence_task,2024.1.5,None,2024-10-17 14h35.17.260868 +0530,
150,v,17,1,69,1,,,,,330.0770051999716,,330.06459169997834,330.0770051999716,331.07777039997745,331.07777039997745,331.07777039997745,331.07777039997745,331.07777039997745,332.0778225000249,332.0778225000249,332.56519190000836,v,1,0.4842272999230772,None,tots,001,2024-10-17_14h35.01.876,Motor_sequence_task,2024.1.5,None,2024-10-17 14h35.17.260868 +0530,
50,c,17,2,70,2,,,,,332.57823380001355,,332.5659188000718,332.57823380001355,333.57896499999333,333.57896499999333,333.57896499999333,333.57896499999333,333.57896499999333,334.5792574000079,334.5792574000079,335.21624930005055,c,1,0.6304581000003964,None,tots,001,2024-10-17_14h35.01.876,Motor_sequence_task,2024.1.5,None,2024-10-17 14h35.17.260868 +0530,
-150,z,17,3,71,3,,,,,335.2290008000564,,335.21697990002576,335.2290008000564,336.22962490003556,336.22962490003556,336.22962490003556,336.22962490003556,336.22962490003556,337.23016719997395,337.23016719997395,337.7164097999921,z,1,0.478799199918285,None,tots,001,2024-10-17_14h35.01.876,Motor_sequence_task,2024.1.5,None,2024-10-17 14h35.17.260868 +0530,
-50,x,18,0,72,0,,,,,337.73034760006703,,337.7171214000555,337.73034760006703,338.73084380000364,338.73084380000364,338.73084380000364,338.73084380000364,338.73084380000364,339.73127400001977,339.73127400001977,340.3844391000457,x,1,0.6397466999478638,None,tots,001,2024-10-17_14h35.01.876,Motor_sequence_task,2024.1.5,None,2024-10-17 14h35.17.260868 +0530,
150,v,18,1,73,1,,,,,340.39835739997216,,340.38518640003167,340.39835739997216,341.39814920001663,341.39814920001663,341.39814920001663,341.39814920001663,341.39814920001663,342.39842189999763,342.39842189999763,342.8707910999656,v,1,0.47123959998134524,None,tots,001,2024-10-17_14h35.01.876,Motor_sequence_task,2024.1.5,None,2024-10-17 14h35.17.260868 +0530,
50,c,18,2,74,2,,,,,342.88229570002295,,342.871520100045,342.88229570002295,343.88291739998385,343.88291739998385,343.88291739998385,343.88291739998385,343.88291739998385,344.88317669997923,344.88317669997923,345.3859751999844,c,1,0.4947199000744149,None,tots,001,2024-10-17_14h35.01.876,Motor_sequence_task,2024.1.5,None,2024-10-17 14h35.17.260868 +0530,
-150,z,18,3,75,3,,,,,345.3996560999658,,345.38666119996924,345.3996560999658,346.4004910000367,346.4004910000367,346.4004910000367,346.4004910000367,346.4004910000367,347.4007889999775,347.4007889999775,348.17064020002726,z,1,0.76233699999284,None,tots,001,2024-10-17_14h35.01.876,Motor_sequence_task,2024.1.5,None,2024-10-17 14h35.17.260868 +0530,
-50,x,19,0,76,0,,,,,348.18423290003557,,348.17137840006035,348.18423290003557,349.1848563000094,349.1848563000094,349.1848563000094,349.1848563000094,349.1848563000094,350.1850300000515,350.1850300000515,350.83795359998476,x,1,0.6401241000276059,None,tots,001,2024-10-17_14h35.01.876,Motor_sequence_task,2024.1.5,None,2024-10-17 14h35.17.260868 +0530,
150,v,19,1,77,1,,,,,350.8517288999865,,350.8386477000313,350.8517288999865,351.8523559999885,351.8523559999885,351.8523559999885,351.8523559999885,351.8523559999885,352.85295199998654,352.85295199998654,353.3065813999856,v,1,0.4468033999437466,None,tots,001,2024-10-17_14h35.01.876,Motor_sequence_task,2024.1.5,None,2024-10-17 14h35.17.260868 +0530,
50,c,19,2,78,2,,,,,353.3197074000491,,353.30754890001845,353.3197074000491,354.3199132999871,354.3199132999871,354.3199132999871,354.3199132999871,354.3199132999871,355.32047070004046,355.32047070004046,355.8407473000698,c,1,0.5120883999625221,None,tots,001,2024-10-17_14h35.01.876,Motor_sequence_task,2024.1.5,None,2024-10-17 14h35.17.260868 +0530,
-150,z,19,3,79,3,,,,,355.8536742000142,,355.8414597000228,355.8536742000142,356.8546204000013,356.8546204000013,356.8546204000013,356.8546204000013,356.8546204000013,357.85477780003566,357.85477780003566,358.30835609999485,z,1,0.4411016999511048,None,tots,001,2024-10-17_14h35.01.876,Motor_sequence_task,2024.1.5,None,2024-10-17 14h35.17.260868 +0530,
-50,x,20,0,80,0,,,,,358.32151110004634,,358.30905699997675,358.32151110004634,359.322755399975,359.322755399975,359.322755399975,359.322755399975,359.322755399975,360.3227952000452,360.3227952000452,360.84234810003545,x,1,0.5149313999572769,None,tots,001,2024-10-17_14h35.01.876,Motor_sequence_task,2024.1.5,None,2024-10-17 14h35.17.260868 +0530,
150,v,20,1,81,1,,,,,360.8558685000753,,360.8430703000631,360.8558685000753,361.8560292000184,361.8560292000184,361.8560292000184,361.8560292000184,361.8560292000184,362.8571067000739,362.8571067000739,363.3449696999742,v,1,0.48399420001078397,None,tots,001,2024-10-17_14h35.01.876,Motor_sequence_task,2024.1.5,None,2024-10-17 14h35.17.260868 +0530,
50,c,20,2,82,2,,,,,363.3575279000215,,363.3456669000443,363.3575279000215,364.3575148000382,364.3575148000382,364.3575148000382,364.3575148000382,364.3575148000382,365.35751280002296,365.35751280002296,365.879886400071,c,1,0.5151356999995187,None,tots,001,2024-10-17_14h35.01.876,Motor_sequence_task,2024.1.5,None,2024-10-17 14h35.17.260868 +0530,
-150,z,20,3,83,3,,,,,365.89084580005147,,365.88063620007597,365.89084580005147,366.89211390004493,366.89211390004493,366.89211390004493,366.89211390004493,366.89211390004493,367.8924870999763,367.8924870999763,368.39573260000907,z,1,0.4947567000053823,None,tots,001,2024-10-17_14h35.01.876,Motor_sequence_task,2024.1.5,None,2024-10-17 14h35.17.260868 +0530,
-50,x,21,0,84,0,,,,,368.40854219999164,,368.3964786999859,368.40854219999164,369.40954420005437,369.40954420005437,369.40954420005437,369.40954420005437,369.40954420005437,370.4102046000771,370.4102046000771,370.99572979996447,x,1,0.5737761000636965,None,tots,001,2024-10-17_14h35.01.876,Motor_sequence_task,2024.1.5,None,2024-10-17 14h35.17.260868 +0530,
150,v,21,1,85,1,,,,,371.0100544000743,,370.9964464000659,371.0100544000743,372.0114496999886,372.0114496999886,372.0114496999886,372.0114496999886,372.0114496999886,373.01097790000495,373.01097790000495,373.54765079997014,v,1,0.5301752999657765,None,tots,001,2024-10-17_14h35.01.876,Motor_sequence_task,2024.1.5,None,2024-10-17 14h35.17.260868 +0530,
50,c,21,2,86,2,,,,,373.56085999996867,,373.548395800055,373.56085999996867,374.56139539997093,374.56139539997093,374.56139539997093,374.56139539997093,374.56139539997093,375.5627736999886,375.5627736999886,376.0981219999958,c,1,0.5223019999684766,None,tots,001,2024-10-17_14h35.01.876,Motor_sequence_task,2024.1.5,None,2024-10-17 14h35.17.260868 +0530,
-150,z,21,3,87,3,,,,,376.11212080006953,,376.09886150003877,376.11212080006953,377.11274919996504,377.11274919996504,377.11274919996504,377.11274919996504,377.11274919996504,378.11276679998264,378.11276679998264,378.63255079998635,z,1,0.5089248999720439,None,tots,001,2024-10-17_14h35.01.876,Motor_sequence_task,2024.1.5,None,2024-10-17 14h35.17.260868 +0530,
-50,x,22,0,88,0,,,,,378.6464944999898,,378.63329779997,378.6464944999898,379.6468447999796,379.6468447999796,379.6468447999796,379.6468447999796,379.6468447999796,380.6471279000398,380.6471279000398,381.6506145000458,x,1,0.9933849000371993,None,tots,001,2024-10-17_14h35.01.876,Motor_sequence_task,2024.1.5,None,2024-10-17 14h35.17.260868 +0530,
150,v,22,1,89,1,,,,,381.6641552000074,,381.6516398000531,381.6641552000074,382.66465689998586,382.66465689998586,382.66465689998586,382.66465689998586,382.66465689998586,383.66503589996137,383.66503589996137,384.36804480000865,v,1,0.6890032000374049,None,tots,001,2024-10-17_14h35.01.876,Motor_sequence_task,2024.1.5,None,2024-10-17 14h35.17.260868 +0530,
50,c,22,2,90,2,,,,,384.3819760000333,,384.3687386000529,384.3819760000333,385.38218189997133,385.38218189997133,385.38218189997133,385.38218189997133,385.38218189997133,386.3823822999839,386.3823822999839,387.0023604000453,c,1,0.611930700019002,None,tots,001,2024-10-17_14h35.01.876,Motor_sequence_task,2024.1.5,None,2024-10-17 14h35.17.260868 +0530,
-150,z,22,3,91,3,,,,,387.0162760000676,,387.0030589000089,387.0162760000676,388.01671440002974,388.01671440002974,388.01671440002974,388.01671440002974,388.01671440002974,389.01706620003097,389.01706620003097,391.30452490004245,z,1,2.283984799985774,None,tots,001,2024-10-17_14h35.01.876,Motor_sequence_task,2024.1.5,None,2024-10-17 14h35.17.260868 +0530,
-50,x,23,0,92,0,,,,,391.3179972000653,,391.30528890003916,391.3179972000653,392.3184487000108,392.3184487000108,392.3184487000108,392.3184487000108,392.3184487000108,393.3187552000163,393.3187552000163,393.9729315000586,x,1,0.6492672000313178,None,tots,001,2024-10-17_14h35.01.876,Motor_sequence_task,2024.1.5,None,2024-10-17 14h35.17.260868 +0530,
150,v,23,1,93,1,,,,,393.9855863000266,,393.9737393000396,393.9855863000266,394.9862896000268,394.9862896000268,394.9862896000268,394.9862896000268,394.9862896000268,395.9865093000699,395.9865093000699,396.55868160002865,v,1,0.5664911000058055,None,tots,001,2024-10-17_14h35.01.876,Motor_sequence_task,2024.1.5,None,2024-10-17 14h35.17.260868 +0530,
50,c,23,2,94,2,,,,,396.57117450004444,,396.5599342000205,396.57117450004444,397.57077340001706,397.57077340001706,397.57077340001706,397.57077340001706,397.57077340001706,398.5712367000524,398.5712367000524,399.1237961000297,c,1,0.5458626999752596,None,tots,001,2024-10-17_14h35.01.876,Motor_sequence_task,2024.1.5,None,2024-10-17 14h35.17.260868 +0530,
-150,z,23,3,95,3,,,,,399.137332500075,,399.1245333000552,399.137332500075,400.1386792999692,400.1386792999692,400.1386792999692,400.1386792999692,400.1386792999692,401.13845930004027,401.13845930004027,401.54206670005806,z,1,0.40204509999603033,None,tots,001,2024-10-17_14h35.01.876,Motor_sequence_task,2024.1.5,None,2024-10-17 14h35.17.260868 +0530,
-50,x,24,0,96,0,,,,,401.55502730002627,,401.542761699995,401.55502730002627,402.55616569996346,402.55616569996346,402.55616569996346,402.55616569996346,402.55616569996346,403.55642030003946,403.55642030003946,404.0934723999817,x,1,0.5339377999771386,None,tots,001,2024-10-17_14h35.01.876,Motor_sequence_task,2024.1.5,None,2024-10-17 14h35.17.260868 +0530,
150,v,24,1,97,1,,,,,404.1064837999875,,404.0942345999647,404.1064837999875,405.1064989999868,405.1064989999868,405.1064989999868,405.1064989999868,405.1064989999868,406.1074873000616,406.1074873000616,406.59377390006557,v,1,0.47309129999484867,None,tots,001,2024-10-17_14h35.01.876,Motor_sequence_task,2024.1.5,None,2024-10-17 14h35.17.260868 +0530,
50,c,24,2,98,2,,,,,406.60678300005384,,406.5944984999951,406.60678300005384,407.6079551000148,407.6079551000148,407.6079551000148,407.6079551000148,407.6079551000148,408.6082733999938,408.6082733999938,409.2956857000245,c,1,0.6804201001068577,None,tots,001,2024-10-17_14h35.01.876,Motor_sequence_task,2024.1.5,None,2024-10-17 14h35.17.260868 +0530,
-150,z,24,3,99,3,,,,,409.3080851000268,,409.29638429998886,409.3080851000268,410.30932740005665,410.30932740005665,410.30932740005665,410.30932740005665,410.30932740005665,411.3089562000241,411.3089562000241,411.77916140004527,z,1,0.4671121999854222,None,tots,001,2024-10-17_14h35.01.876,Motor_sequence_task,2024.1.5,None,2024-10-17 14h35.17.260868 +0530,
-50,x,25,0,100,0,,,,,411.7921612999635,,411.77984420000575,411.7921612999635,412.7929786000168,412.7929786000168,412.7929786000168,412.7929786000168,412.7929786000168,413.7940581999719,413.7940581999719,414.3300820000004,x,1,0.5278505000751466,None,tots,001,2024-10-17_14h35.01.876,Motor_sequence_task,2024.1.5,None,2024-10-17 14h35.17.260868 +0530,
150,v,25,1,101,1,,,,,414.3432853000704,,414.33085829997435,414.3432853000704,415.34401920007076,415.34401920007076,415.34401920007076,415.34401920007076,415.34401920007076,416.34456590004265,416.34456590004265,416.8809267000761,v,1,0.5214457999682054,None,tots,001,2024-10-17_14h35.01.876,Motor_sequence_task,2024.1.5,None,2024-10-17 14h35.17.260868 +0530,
50,c,25,2,102,2,,,,,416.89469310001004,,416.88163930003066,416.89469310001004,417.8953553000465,417.8953553000465,417.8953553000465,417.8953553000465,417.8953553000465,418.8957532000495,418.8957532000495,419.39909530000295,c,1,0.4969273000024259,None,tots,001,2024-10-17_14h35.01.876,Motor_sequence_task,2024.1.5,None,2024-10-17 14h35.17.260868 +0530,
-150,z,25,3,103,3,,,,,419.4120302000083,,419.3998189000413,419.4120302000083,420.41243779996876,420.41243779996876,420.41243779996876,420.41243779996876,420.41243779996876,421.4128437000327,421.4128437000327,421.94928429997526,z,1,0.5285534999566153,None,tots,001,2024-10-17_14h35.01.876,Motor_sequence_task,2024.1.5,None,2024-10-17 14h35.17.260868 +0530,
-50,x,26,0,104,0,,,,,421.9634572999785,,421.949992400012,421.9634572999785,422.96374070004094,422.96374070004094,422.96374070004094,422.96374070004094,422.96374070004094,423.9637843000237,423.9637843000237,424.4003289999673,x,1,0.4228685999987647,None,tots,001,2024-10-17_14h35.01.876,Motor_sequence_task,2024.1.5,None,2024-10-17 14h35.17.260868 +0530,
150,v,26,1,105,1,,,,,424.4141896000365,,424.40105850005057,424.4141896000365,425.41500799998175,425.41500799998175,425.41500799998175,425.41500799998175,425.41500799998175,426.41534900001716,426.41534900001716,426.8859364000382,v,1,0.4590976999606937,None,tots,001,2024-10-17_14h35.01.876,Motor_sequence_task,2024.1.5,None,2024-10-17 14h35.17.260868 +0530,
50,c,26,2,106,2,,,,,426.89830230001826,,426.8866373000201,426.89830230001826,427.89890440006275,427.89890440006275,427.89890440006275,427.89890440006275,427.89890440006275,428.89994010003284,428.89994010003284,429.7879907999886,c,1,0.8757554000476375,None,tots,001,2024-10-17_14h35.01.876,Motor_sequence_task,2024.1.5,None,2024-10-17 14h35.17.260868 +0530,
-150,z,26,3,107,3,,,,,429.7997652000049,,429.7892300999956,429.7997652000049,430.80027969996445,430.80027969996445,430.80027969996445,430.80027969996445,430.80027969996445,431.8010503000114,431.8010503000114,432.4707043999806,z,1,0.6531635998981073,None,tots,001,2024-10-17_14h35.01.876,Motor_sequence_task,2024.1.5,None,2024-10-17 14h35.17.260868 +0530,
-50,x,27,0,108,0,,,,,432.48414379998576,,432.4714483000571,432.48414379998576,433.48505939997267,433.48505939997267,433.48505939997267,433.48505939997267,433.48505939997267,434.484768299968,434.484768299968,434.90540950000286,x,1,0.41791429999284446,None,tots,001,2024-10-17_14h35.01.876,Motor_sequence_task,2024.1.5,None,2024-10-17 14h35.17.260868 +0530,
150,v,27,1,109,1,,,,,434.9182189999847,,434.90616680006497,434.9182189999847,435.9195798999863,435.9195798999863,435.9195798999863,435.9195798999863,435.9195798999863,436.9198308000341,436.9198308000341,437.45837130001746,c,0,0.5236352999927476,None,tots,001,2024-10-17_14h35.01.876,Motor_sequence_task,2024.1.5,None,2024-10-17 14h35.17.260868 +0530,
50,c,27,2,110,2,,,,,437.46969890000764,,437.4592001000419,437.46969890000764,438.47017440001946,438.47017440001946,438.47017440001946,438.47017440001946,438.47017440001946,439.470170399989,439.470170399989,439.9264888999751,c,1,0.44799709995277226,None,tots,001,2024-10-17_14h35.01.876,Motor_sequence_task,2024.1.5,None,2024-10-17 14h35.17.260868 +0530,
-150,z,27,3,111,3,,,,,439.9369078000309,,439.92764600005466,439.9369078000309,440.93711180007085,440.93711180007085,440.93711180007085,440.93711180007085,440.93711180007085,441.9375011000084,441.9375011000084,442.34208580001723,z,1,0.3981451999861747,None,tots,001,2024-10-17_14h35.01.876,Motor_sequence_task,2024.1.5,None,2024-10-17 14h35.17.260868 +0530,
-50,x,28,0,112,0,,,,,442.35451029997785,,442.3429875000147,442.35451029997785,443.35486319998745,443.35486319998745,443.35486319998745,443.35486319998745,443.35486319998745,444.355533999973,444.355533999973,444.7761040000478,x,1,0.41700760007370263,None,tots,001,2024-10-17_14h35.01.876,Motor_sequence_task,2024.1.5,None,2024-10-17 14h35.17.260868 +0530,
150,v,28,1,113,1,,,,,444.7887837999733,,444.77721710002515,444.7887837999733,445.78949210001156,445.78949210001156,445.78949210001156,445.78949210001156,445.78949210001156,446.7739722999977,446.7739722999977,447.3263546000235,v,1,0.5457785000326112,None,tots,001,2024-10-17_14h35.01.876,Motor_sequence_task,2024.1.5,None,2024-10-17 14h35.17.260868 +0530,
50,c,28,2,114,2,,,,,447.33951479999814,,447.32708580000326,447.33951479999814,448.3400251000421,448.3400251000421,448.3400251000421,448.3400251000421,448.3400251000421,449.3403465000447,449.3403465000447,449.69419259997085,c,1,0.3491396000608802,None,tots,001,2024-10-17_14h35.01.876,Motor_sequence_task,2024.1.5,None,2024-10-17 14h35.17.260868 +0530,
-150,z,28,3,115,3,,,,,449.7076380000217,,449.69497710000724,449.7076380000217,450.7079891000176,450.7079891000176,450.7079891000176,450.7079891000176,450.7079891000176,451.70860650006216,451.70860650006216,452.1784115000628,z,1,0.45856980001553893,None,tots,001,2024-10-17_14h35.01.876,Motor_sequence_task,2024.1.5,None,2024-10-17 14h35.17.260868 +0530,
-50,x,29,0,116,0,,,,,452.1914831000613,,452.179166899994,452.1914831000613,453.1924631000729,453.1924631000729,453.1924631000729,453.1924631000729,453.1924631000729,454.1926538000116,454.1926538000116,454.61281069996767,x,1,0.41485880000982434,None,tots,001,2024-10-17_14h35.01.876,Motor_sequence_task,2024.1.5,None,2024-10-17 14h35.17.260868 +0530,
150,v,29,1,117,1,,,,,454.62558870005887,,454.6135463999817,454.62558870005887,455.62677500001155,455.62677500001155,455.62677500001155,455.62677500001155,455.62677500001155,456.6267485000426,456.6267485000426,457.23029420000967,v,1,0.5954681999282911,None,tots,001,2024-10-17_14h35.01.876,Motor_sequence_task,2024.1.5,None,2024-10-17 14h35.17.260868 +0530,
50,c,29,2,118,2,,,,,457.24398709996603,,457.23101400001906,457.24398709996603,458.24452569999266,458.24452569999266,458.24452569999266,458.24452569999266,458.24452569999266,459.2448303999845,459.2448303999845,459.69796869996935,c,1,0.4364410999696702,None,tots,001,2024-10-17_14h35.01.876,Motor_sequence_task,2024.1.5,None,2024-10-17 14h35.17.260868 +0530,
-150,z,29,3,119,3,,,,,459.710647800006,,459.6987209999934,459.710647800006,460.7120241000084,460.7120241000084,460.7120241000084,460.7120241000084,460.7120241000084,461.71221679996233,461.71221679996233,462.13375779998023,z,1,0.4120085999602452,None,tots,001,2024-10-17_14h35.01.876,Motor_sequence_task,2024.1.5,None,2024-10-17 14h35.17.260868 +0530,
-50,x,30,0,120,0,,,,,462.14615749998484,,462.1349860000191,462.14615749998484,463.14635489997454,463.14635489997454,463.14635489997454,463.14635489997454,463.14635489997454,464.1467022000579,464.1467022000579,464.8664668999845,x,1,0.7157501999754459,None,tots,001,2024-10-17_14h35.01.876,Motor_sequence_task,2024.1.5,None,2024-10-17 14h35.17.260868 +0530,
150,v,30,1,121,1,,,,,464.87970479996875,,464.8671647000592,464.87970479996875,465.88052080001216,465.88052080001216,465.88052080001216,465.88052080001216,465.88052080001216,466.88104110001586,466.88104110001586,467.4338448999915,v,1,0.5454988999990746,None,tots,001,2024-10-17_14h35.01.876,Motor_sequence_task,2024.1.5,None,2024-10-17 14h35.17.260868 +0530,
50,c,30,2,122,2,,,,,467.4470449000364,,467.4345621999819,467.4470449000364,468.448503099964,468.448503099964,468.448503099964,468.448503099964,468.448503099964,469.44912780006416,469.44912780006416,470.10183100006543,c,1,0.6401403999188915,None,tots,001,2024-10-17_14h35.01.876,Motor_sequence_task,2024.1.5,None,2024-10-17 14h35.17.260868 +0530,
-150,z,30,3,123,3,,,,,470.1154175000265,,470.10261329996865,470.1154175000265,471.1159031999996,471.1159031999996,471.1159031999996,471.1159031999996,471.1159031999996,472.11655510007404,472.11655510007404,472.6363328000298,z,1,0.5156603999203071,None,tots,001,2024-10-17_14h35.01.876,Motor_sequence_task,2024.1.5,None,2024-10-17 14h35.17.260868 +0530,
-50,x,31,0,124,0,,,,,472.6495242000092,,472.63703270000406,472.6495242000092,473.65059750003275,473.65059750003275,473.65059750003275,473.65059750003275,473.65059750003275,474.65053069998976,474.65053069998976,475.18714030005503,x,1,0.5261063000652939,None,tots,001,2024-10-17_14h35.01.876,Motor_sequence_task,2024.1.5,None,2024-10-17 14h35.17.260868 +0530,
150,v,31,1,125,1,,,,,475.2006323999958,,475.1878853000235,475.2006323999958,476.2013737000525,476.2013737000525,476.2013737000525,476.2013737000525,476.2013737000525,477.20138940005563,477.20138940005563,477.90525199996773,v,1,0.702445299946703,None,tots,001,2024-10-17_14h35.01.876,Motor_sequence_task,2024.1.5,None,2024-10-17 14h35.17.260868 +0530,
50,c,31,2,126,2,,,,,477.91885480005294,,477.90598779998254,477.91885480005294,478.91905320005026,478.91905320005026,478.91905320005026,478.91905320005026,478.91905320005026,479.9190276999725,479.9190276999725,482.18996320001315,c,1,2.2624758000019938,None,tots,001,2024-10-17_14h35.01.876,Motor_sequence_task,2024.1.5,None,2024-10-17 14h35.17.260868 +0530,
-150,z,31,3,127,3,,,,,482.20328889996745,,482.1906938999891,482.20328889996745,483.2041058000177,483.2041058000177,483.2041058000177,483.2041058000177,483.2041058000177,484.2044575000182,484.2044575000182,484.65774940000847,z,1,0.45138770004268736,None,tots,001,2024-10-17_14h35.01.876,Motor_sequence_task,2024.1.5,None,2024-10-17 14h35.17.260868 +0530,
-50,x,32,0,128,0,,,,,484.67155400000047,,484.6585066000698,484.67155400000047,485.67150719999336,485.67150719999336,485.67150719999336,485.67150719999336,485.67150719999336,486.672033400042,486.672033400042,487.1610017999774,x,1,0.48427999997511506,None,tots,001,2024-10-17_14h35.01.876,Motor_sequence_task,2024.1.5,None,2024-10-17 14h35.17.260868 +0530,
150,v,32,1,129,1,,,,,487.17240809998475,,487.16212560003623,487.17240809998475,488.17293230001815,488.17293230001815,488.17293230001815,488.17293230001815,488.17293230001815,489.1731801000424,489.1731801000424,489.6425425000489,v,1,0.46433700004126877,None,tots,001,2024-10-17_14h35.01.876,Motor_sequence_task,2024.1.5,None,2024-10-17 14h35.17.260868 +0530,
50,c,32,2,130,2,,,,,489.65654330002144,,489.6432357999729,489.65654330002144,490.6571980000008,490.6571980000008,490.6571980000008,490.6571980000008,490.6571980000008,491.65729979996104,491.65729979996104,492.04585470003076,c,1,0.3850622000172734,None,tots,001,2024-10-17_14h35.01.876,Motor_sequence_task,2024.1.5,None,2024-10-17 14h35.17.260868 +0530,
-150,z,32,3,131,3,,,,,492.0573395000538,,492.04657920007594,492.0573395000538,493.05817450000905,493.05817450000905,493.05817450000905,493.05817450000905,493.05817450000905,494.05840089998674,494.05840089998674,494.5448382999748,z,1,0.47589750005863607,None,tots,001,2024-10-17_14h35.01.876,Motor_sequence_task,2024.1.5,None,2024-10-17 14h35.17.260868 +0530,
-50,x,33,0,132,0,,,,,494.55779360001907,,494.5455765000079,494.55779360001907,495.5588189000264,495.5588189000264,495.5588189000264,495.5588189000264,495.5588189000264,496.5593184999889,496.5593184999889,496.9793963000411,x,1,0.416516299941577,None,tots,001,2024-10-17_14h35.01.876,Motor_sequence_task,2024.1.5,None,2024-10-17 14h35.17.260868 +0530,
150,v,33,1,133,1,,,,,496.99296800000593,,496.9801475000568,496.99296800000593,497.9928832000587,497.9928832000587,497.9928832000587,497.9928832000587,497.9928832000587,498.9926695000613,498.9926695000613,499.479776400025,v,1,0.47784790000878274,None,tots,001,2024-10-17_14h35.01.876,Motor_sequence_task,2024.1.5,None,2024-10-17 14h35.17.260868 +0530,
50,c,33,2,134,2,,,,,499.4937251000665,,499.480507100001,499.4937251000665,500.4943542999681,500.4943542999681,500.4943542999681,500.4943542999681,500.4943542999681,501.4944713000441,501.4944713000441,502.04841509996913,c,1,0.5363020000513643,None,tots,001,2024-10-17_14h35.01.876,Motor_sequence_task,2024.1.5,None,2024-10-17 14h35.17.260868 +0530,
-150,z,33,3,135,3,,,,,502.06135219999123,,502.04914730007295,502.06135219999123,503.0621605999768,503.0621605999768,503.0621605999768,503.0621605999768,503.0621605999768,504.0622080999892,504.0622080999892,504.4657894000411,z,1,0.4022357000503689,None,tots,001,2024-10-17_14h35.01.876,Motor_sequence_task,2024.1.5,None,2024-10-17 14h35.17.260868 +0530,
-50,x,34,0,136,0,,,,,504.4789948000107,,504.46652819996234,504.4789948000107,505.4803496999666,505.4803496999666,505.4803496999666,505.4803496999666,505.4803496999666,506.4796822000062,506.4796822000062,507.1162644000724,x,1,0.6207436999538913,None,tots,001,2024-10-17_14h35.01.876,Motor_sequence_task,2024.1.5,None,2024-10-17 14h35.17.260868 +0530,
150,v,34,1,137,1,,,,,507.1294095000485,,507.1169840999646,507.1294095000485,508.1306846999796,508.1306846999796,508.1306846999796,508.1306846999796,508.1306846999796,509.13052190002054,509.13052190002054,509.65051830001175,v,1,0.5105717000551522,None,tots,001,2024-10-17_14h35.01.876,Motor_sequence_task,2024.1.5,None,2024-10-17 14h35.17.260868 +0530,
50,c,34,2,138,2,,,,,509.66421039996203,,509.651272600051,509.66421039996203,510.66447319998406,510.66447319998406,510.66447319998406,510.66447319998406,510.66447319998406,511.66513770003803,511.66513770003803,512.1525781999808,c,1,0.4797608000226319,None,tots,001,2024-10-17_14h35.01.876,Motor_sequence_task,2024.1.5,None,2024-10-17 14h35.17.260868 +0530,
-150,z,34,3,139,3,,,,,512.1651524000335,,512.1532782000722,512.1651524000335,513.1657622000203,513.1657622000203,513.1657622000203,513.1657622000203,513.1657622000203,514.1660936999833,514.1660936999833,514.6192476999713,z,1,0.4479987999657169,None,tots,001,2024-10-17_14h35.01.876,Motor_sequence_task,2024.1.5,None,2024-10-17 14h35.17.260868 +0530,
-50,x,35,0,140,0,,,,,514.6326834000647,,514.6199464000529,514.6326834000647,515.6336477000732,515.6336477000732,515.6336477000732,515.6336477000732,515.6336477000732,516.633680799976,516.633680799976,517.2037699000211,x,1,0.5608104999409989,None,tots,001,2024-10-17_14h35.01.876,Motor_sequence_task,2024.1.5,None,2024-10-17 14h35.17.260868 +0530,
150,v,35,1,141,1,,,,,517.2172918000724,,517.2045006999979,517.2172918000724,518.2172763000708,518.2172763000708,518.2172763000708,518.2172763000708,518.2172763000708,519.218289499986,519.218289499986,519.7410481000552,v,1,0.5173447999404743,None,tots,001,2024-10-17_14h35.01.876,Motor_sequence_task,2024.1.5,None,2024-10-17 14h35.17.260868 +0530,
50,c,35,2,142,2,,,,,519.7515910000075,,519.7419783000369,519.7515910000075,520.7521200999618,520.7521200999618,520.7521200999618,520.7521200999618,520.7521200999618,521.7523950000759,521.7523950000759,522.4224395999918,c,1,0.6630702000111341,None,tots,001,2024-10-17_14h35.01.876,Motor_sequence_task,2024.1.5,None,2024-10-17 14h35.17.260868 +0530,
-150,z,35,3,143,3,,,,,522.4362367000431,,522.4231302000117,522.4362367000431,523.4366517000599,523.4366517000599,523.4366517000599,523.4366517000599,523.4366517000599,524.4368838999653,524.4368838999653,524.8569213000592,z,1,0.41019059997051954,None,tots,001,2024-10-17_14h35.01.876,Motor_sequence_task,2024.1.5,None,2024-10-17 14h35.17.260868 +0530,
-50,x,36,0,144,0,,,,,524.8701626000693,,524.8576203000266,524.8701626000693,525.8713377000531,525.8713377000531,525.8713377000531,525.8713377000531,525.8713377000531,526.8707747000735,526.8707747000735,527.4242731999839,x,1,0.5480001999530941,None,tots,001,2024-10-17_14h35.01.876,Motor_sequence_task,2024.1.5,None,2024-10-17 14h35.17.260868 +0530,
150,v,36,1,145,1,,,,,527.4383084999863,,527.4250188000733,527.4383084999863,528.4384516000282,528.4384516000282,528.4384516000282,528.4384516000282,528.4384516000282,529.4390339000383,529.4390339000383,530.1935751000419,v,1,0.7423587000230327,None,tots,001,2024-10-17_14h35.01.876,Motor_sequence_task,2024.1.5,None,2024-10-17 14h35.17.260868 +0530,
50,c,36,2,146,2,,,,,530.2055949000642,,530.1942823000718,530.2055949000642,531.2062596000032,531.2062596000032,531.2062596000032,531.2062596000032,531.2062596000032,532.206321900012,532.206321900012,532.6932106000604,c,1,0.4844016000861302,None,tots,001,2024-10-17_14h35.01.876,Motor_sequence_task,2024.1.5,None,2024-10-17 14h35.17.260868 +0530,
-150,z,36,3,147,3,,,,,532.7069541000528,,532.6939539000159,532.7069541000528,533.7072187999729,533.7072187999729,533.7072187999729,533.7072187999729,533.7072187999729,534.7076276000589,534.7076276000589,535.1779978000559,z,1,0.46446609997656196,None,tots,001,2024-10-17_14h35.01.876,Motor_sequence_task,2024.1.5,None,2024-10-17 14h35.17.260868 +0530,
-50,x,37,0,148,0,,,,,535.1905884000007,,535.1786809000187,535.1905884000007,536.1917935999809,536.1917935999809,536.1917935999809,536.1917935999809,536.1917935999809,537.1916008000262,537.1916008000262,537.7124278000556,x,1,0.5179700000444427,None,tots,001,2024-10-17_14h35.01.876,Motor_sequence_task,2024.1.5,None,2024-10-17 14h35.17.260868 +0530,
150,v,37,1,149,1,,,,,537.725589800044,,537.7131576000247,537.725589800044,538.7258746000007,538.7258746000007,538.7258746000007,538.7258746000007,538.7258746000007,539.7264516999712,539.7264516999712,540.4627922000363,v,1,0.7264304000418633,None,tots,001,2024-10-17_14h35.01.876,Motor_sequence_task,2024.1.5,None,2024-10-17 14h35.17.260868 +0530,
50,c,37,2,150,2,,,,,540.4759605000727,,540.4634796000319,540.4759605000727,541.4764468000503,541.4764468000503,541.4764468000503,541.4764468000503,541.4764468000503,542.4774547000416,542.4774547000416,543.0797927000094,c,1,0.5889094000449404,None,tots,001,2024-10-17_14h35.01.876,Motor_sequence_task,2024.1.5,None,2024-10-17 14h35.17.260868 +0530,
-150,z,37,3,151,3,,,,,543.0943287999835,,543.0805250999983,543.0943287999835,544.0946856000228,544.0946856000228,544.0946856000228,544.0946856000228,544.0946856000228,545.0945052000461,545.0945052000461,545.5315341000678,z,1,0.4357214999618009,None,tots,001,2024-10-17_14h35.01.876,Motor_sequence_task,2024.1.5,None,2024-10-17 14h35.17.260868 +0530,
-50,x,38,0,152,0,,,,,545.5447128000669,,545.532233200036,545.5447128000669,546.5455307000084,546.5455307000084,546.5455307000084,546.5455307000084,546.5455307000084,547.5464970000321,547.5464970000321,548.415672800038,x,1,0.8538925000466406,None,tots,001,2024-10-17_14h35.01.876,Motor_sequence_task,2024.1.5,None,2024-10-17 14h35.17.260868 +0530,
150,v,38,1,153,1,,,,,548.4295220000204,,548.416385199991,548.4295220000204,549.4297852000454,549.4297852000454,549.4297852000454,549.4297852000454,549.4297852000454,550.4303915000055,550.4303915000055,551.2675120000495,v,1,0.83145720011089,None,tots,001,2024-10-17_14h35.01.876,Motor_sequence_task,2024.1.5,None,2024-10-17 14h35.17.260868 +0530,
50,c,38,2,154,2,,,,,551.2806630000705,,551.2682613000507,551.2806630000705,552.2809478000272,552.2809478000272,552.2809478000272,552.2809478000272,552.2809478000272,553.2815250999993,553.2815250999993,554.0184054999845,c,1,0.7338220999808982,None,tots,001,2024-10-17_14h35.01.876,Motor_sequence_task,2024.1.5,None,2024-10-17 14h35.17.260868 +0530,
-150,z,38,3,155,3,,,,,554.0315812999615,,554.0191524999682,554.0315812999615,555.0320890999865,555.0320890999865,555.0320890999865,555.0320890999865,555.0320890999865,556.0326689999783,556.0326689999783,556.5188138000667,z,1,0.47549480001907796,None,tots,001,2024-10-17_14h35.01.876,Motor_sequence_task,2024.1.5,None,2024-10-17 14h35.17.260868 +0530,
-50,x,39,0,156,0,,,,,556.5324447000166,,556.5195558000123,556.5324447000166,557.5328120000195,557.5328120000195,557.5328120000195,557.5328120000195,557.5328120000195,558.5335626000306,558.5335626000306,559.8033471000381,x,1,1.2556938000489026,None,tots,001,2024-10-17_14h35.01.876,Motor_sequence_task,2024.1.5,None,2024-10-17 14h35.17.260868 +0530,
150,v,39,1,157,1,,,,,559.81729669997,,559.8040468000108,559.81729669997,560.8186796000227,560.8186796000227,560.8186796000227,560.8186796000227,560.8186796000227,561.8183478000574,561.8183478000574,562.9055264999624,v,1,1.0763837000122294,None,tots,001,2024-10-17_14h35.01.876,Motor_sequence_task,2024.1.5,None,2024-10-17 14h35.17.260868 +0530,
50,c,39,2,158,2,,,,,562.9187075999798,,562.9062377000228,562.9187075999798,563.918928100029,563.918928100029,563.918928100029,563.918928100029,563.918928100029,564.919286099961,564.919286099961,566.2230192000279,c,1,1.2966703000711277,None,tots,001,2024-10-17_14h35.01.876,Motor_sequence_task,2024.1.5,None,2024-10-17 14h35.17.260868 +0530,
-150,z,39,3,159,3,,,,,566.2361226000357,,566.2237282000715,566.2361226000357,567.2367742999922,567.2367742999922,567.2367742999922,567.2367742999922,567.2367742999922,568.2372334999964,568.2372334999964,569.3744143999647,z,1,1.1248096000635996,None,tots,001,2024-10-17_14h35.01.876,Motor_sequence_task,2024.1.5,None,2024-10-17 14h35.17.260868 +0530,
-50,x,40,0,160,0,,,,,569.388534000027,,569.3751544000115,569.388534000027,570.3880421000067,570.3880421000067,570.3880421000067,570.3880421000067,570.3880421000067,571.3884174000705,571.3884174000705,572.475904699997,x,1,1.084602800081484,None,tots,001,2024-10-17_14h35.01.876,Motor_sequence_task,2024.1.5,None,2024-10-17 14h35.17.260868 +0530,
150,v,40,1,161,1,,,,,572.4889176000142,,572.4766286000377,572.4889176000142,573.4895541999722,573.4895541999722,573.4895541999722,573.4895541999722,573.4895541999722,574.489757000003,574.489757000003,574.9594851000002,v,1,0.4615498000057414,None,tots,001,2024-10-17_14h35.01.876,Motor_sequence_task,2024.1.5,None,2024-10-17 14h35.17.260868 +0530,
50,c,40,2,162,2,,,,,574.9730258999625,,574.9602159999777,574.9730258999625,575.9735140000703,575.9735140000703,575.9735140000703,575.9735140000703,575.9735140000703,576.9738279000157,576.9738279000157,578.2274598999647,c,1,1.2401164000621065,None,tots,001,2024-10-17_14h35.01.876,Motor_sequence_task,2024.1.5,None,2024-10-17 14h35.17.260868 +0530,
-150,z,40,3,163,3,,,,,578.2412223999854,,578.2281918000663,578.2412223999854,579.2418538000202,579.2418538000202,579.2418538000202,579.2418538000202,579.2418538000202,580.2422794000013,580.2422794000013,582.766148100025,z,1,2.514819600037299,None,tots,001,2024-10-17_14h35.01.876,Motor_sequence_task,2024.1.5,None,2024-10-17 14h35.17.260868 +0530,
-50,x,41,0,164,0,,,,,582.7764982000226,,582.7676111999899,582.7764982000226,583.7769646999659,583.7769646999659,583.7769646999659,583.7769646999659,583.7769646999659,584.7769613000564,584.7769613000564,586.2476420999737,x,1,1.4692557000089437,None,tots,001,2024-10-17_14h35.01.876,Motor_sequence_task,2024.1.5,None,2024-10-17 14h35.17.260868 +0530,
150,v,41,1,165,1,,,,,586.26077240007,,586.2485577999614,586.26077240007,587.2616812000051,587.2616812000051,587.2616812000051,587.2616812000051,587.2616812000051,588.261769499979,588.261769499979,592.1325946999714,v,1,3.855472700088285,None,tots,001,2024-10-17_14h35.01.876,Motor_sequence_task,2024.1.5,None,2024-10-17 14h35.17.260868 +0530,
50,c,41,2,166,2,,,,,592.1470593999838,,592.1333231000463,592.1470593999838,593.1468026000075,593.1468026000075,593.1468026000075,593.1468026000075,593.1468026000075,594.1472110999748,594.1472110999748,594.8848762999987,c,1,0.7315986000467092,None,tots,001,2024-10-17_14h35.01.876,Motor_sequence_task,2024.1.5,None,2024-10-17 14h35.17.260868 +0530,
-150,z,41,3,167,3,,,,,594.897935200017,,594.8855822000187,594.897935200017,595.8984840000048,595.8984840000048,595.8984840000048,595.8984840000048,595.8984840000048,596.8989993999712,596.8989993999712,602.2869376000017,z,1,5.375959099968895,None,tots,001,2024-10-17_14h35.01.876,Motor_sequence_task,2024.1.5,None,2024-10-17 14h35.17.260868 +0530,
-50,x,42,0,168,0,,,,,602.3007545999717,,602.2876708999975,602.3007545999717,603.301361400052,603.301361400052,603.301361400052,603.301361400052,603.301361400052,604.3025979000377,604.3025979000377,609.8067376000108,x,1,5.491119899903424,None,tots,001,2024-10-17_14h35.01.876,Motor_sequence_task,2024.1.5,None,2024-10-17 14h35.17.260868 +0530,
150,v,42,1,169,1,,,,,609.8198095000116,,609.8074325000634,609.8198095000116,610.820487500052,610.820487500052,610.820487500052,610.820487500052,610.820487500052,611.8210770000005,611.8210770000005,612.3908658999717,v,1,0.5554870000341907,None,tots,001,2024-10-17_14h35.01.876,Motor_sequence_task,2024.1.5,None,2024-10-17 14h35.17.260868 +0530,
50,c,42,2,170,2,,,,,612.4058395000175,,612.3915615000296,612.4058395000175,613.4051423000637,613.4051423000637,613.4051423000637,613.4051423000637,613.4051423000637,614.4053851000499,614.4053851000499,615.0250108999899,c,1,0.610273199970834,None,tots,001,2024-10-17_14h35.01.876,Motor_sequence_task,2024.1.5,None,2024-10-17 14h35.17.260868 +0530,
-150,z,42,3,171,3,,,,,615.038768199971,,615.0257368000457,615.038768199971,616.0395585000515,616.0395585000515,616.0395585000515,616.0395585000515,616.0395585000515,617.0399219000246,617.0399219000246,617.4266453000018,z,1,0.3840213998919353,None,tots,001,2024-10-17_14h35.01.876,Motor_sequence_task,2024.1.5,None,2024-10-17 14h35.17.260868 +0530,
-50,x,43,0,172,0,,,,,617.4395044000121,,617.427365600015,617.4395044000121,618.4407482000533,618.4407482000533,618.4407482000533,618.4407482000533,618.4407482000533,619.440689500072,619.440689500072,620.0273469999665,x,1,0.5826619999716058,None,tots,001,2024-10-17_14h35.01.876,Motor_sequence_task,2024.1.5,None,2024-10-17 14h35.17.260868 +0530,
150,v,43,1,173,1,,,,,620.0410346999997,,620.0280801000772,620.0410346999997,621.0418542000698,621.0418542000698,621.0418542000698,621.0418542000698,621.0418542000698,622.0422250999836,622.0422250999836,622.6478944000555,v,1,0.5877056999597698,None,tots,001,2024-10-17_14h35.01.876,Motor_sequence_task,2024.1.5,None,2024-10-17 14h35.17.260868 +0530,
50,c,43,2,174,2,,,,,622.6591506999684,,622.6491773000453,622.6591506999684,623.6592199000297,623.6592199000297,623.6592199000297,623.6592199000297,623.6592199000297,624.6598081999691,624.6598081999691,625.0461662000744,c,1,0.37778929993510246,None,tots,001,2024-10-17_14h35.01.876,Motor_sequence_task,2024.1.5,None,2024-10-17 14h35.17.260868 +0530,
-150,z,43,3,175,3,,,,,625.0591762000695,,625.0473125000717,625.0591762000695,626.0605121999979,626.0605121999979,626.0605121999979,626.0605121999979,626.0605121999979,627.0608907999704,627.0608907999704,627.5476795000723,z,1,0.47712749999482185,None,tots,001,2024-10-17_14h35.01.876,Motor_sequence_task,2024.1.5,None,2024-10-17 14h35.17.260868 +0530,
-50,x,44,0,176,0,,,,,627.5605223000748,,627.5483713999856,627.5605223000748,628.5609326000558,628.5609326000558,628.5609326000558,628.5609326000558,628.5609326000558,629.5615989000071,629.5615989000071,630.0823696000734,x,1,0.5035811000270769,None,tots,001,2024-10-17_14h35.01.876,Motor_sequence_task,2024.1.5,None,2024-10-17 14h35.17.260868 +0530,
150,v,44,1,177,1,,,,,630.0950132000726,,630.0831438000314,630.0950132000726,631.0955376999918,631.0955376999918,631.0955376999918,631.0955376999918,631.0955376999918,632.0959015999688,632.0959015999688,633.1990592000075,v,1,1.0882382999407127,None,tots,001,2024-10-17_14h35.01.876,Motor_sequence_task,2024.1.5,None,2024-10-17 14h35.17.260868 +0530,
50,c,44,2,178,2,,,,,633.2124301000731,,633.1997821000405,633.2124301000731,634.2135270000435,634.2135270000435,634.2135270000435,634.2135270000435,634.2135270000435,635.2135725000408,635.2135725000408,636.5182667999761,c,1,1.2907331999158487,None,tots,001,2024-10-17_14h35.01.876,Motor_sequence_task,2024.1.5,None,2024-10-17 14h35.17.260868 +0530,
-150,z,44,3,179,3,,,,,636.5305284999777,,636.5189582000021,636.5305284999777,637.5312890000641,637.5312890000641,637.5312890000641,637.5312890000641,637.5312890000641,638.5309246999677,638.5309246999677,639.2693923000479,z,1,0.7346226000227034,None,tots,001,2024-10-17_14h35.01.876,Motor_sequence_task,2024.1.5,None,2024-10-17 14h35.17.260868 +0530,
-50,x,45,0,180,0,,,,,639.281688899966,,639.270128400065,639.281688899966,640.282214100007,640.282214100007,640.282214100007,640.282214100007,640.282214100007,641.2828366999747,641.2828366999747,642.0360568000469,x,1,0.736348099890165,None,tots,001,2024-10-17_14h35.01.876,Motor_sequence_task,2024.1.5,None,2024-10-17 14h35.17.260868 +0530,
150,v,45,1,181,1,,,,,642.0491879000328,,642.0367522999877,642.0491879000328,643.0497895000735,643.0497895000735,643.0497895000735,643.0497895000735,643.0497895000735,644.0511188000673,644.0511188000673,644.4879554000217,v,1,0.4313405998982489,None,tots,001,2024-10-17_14h35.01.876,Motor_sequence_task,2024.1.5,None,2024-10-17 14h35.17.260868 +0530,
50,c,45,2,182,2,,,,,644.5000946000218,,644.4886712000007,644.5000946000218,645.5011079000542,645.5011079000542,645.5011079000542,645.5011079000542,645.5011079000542,646.5008381999796,646.5008381999796,647.1213982000481,c,1,0.6092625999590382,None,tots,001,2024-10-17_14h35.01.876,Motor_sequence_task,2024.1.5,None,2024-10-17 14h35.17.260868 +0530,
-150,z,45,3,183,3,,,,,647.1350660000462,,647.1221188000636,647.1350660000462,648.1352171000326,648.1352171000326,648.1352171000326,648.1352171000326,648.1352171000326,649.135770700057,649.135770700057,649.7891800999641,z,1,0.6435950000304729,None,tots,001,2024-10-17_14h35.01.876,Motor_sequence_task,2024.1.5,None,2024-10-17 14h35.17.260868 +0530,
-50,x,46,0,184,0,,,,,649.8021770999767,,649.7899201000109,649.8021770999767,650.8030318999663,650.8030318999663,650.8030318999663,650.8030318999663,650.8030318999663,651.803385999985,651.803385999985,652.3899404000258,x,1,0.5795736000873148,None,tots,001,2024-10-17_14h35.01.876,Motor_sequence_task,2024.1.5,None,2024-10-17 14h35.17.260868 +0530,
150,v,46,1,185,1,,,,,652.4037264999934,,652.3906253000023,652.4037264999934,653.404610699974,653.404610699974,653.404610699974,653.404610699974,653.404610699974,654.4041820999701,654.4041820999701,655.0914718999993,v,1,0.6813890000339597,None,tots,001,2024-10-17_14h35.01.876,Motor_sequence_task,2024.1.5,None,2024-10-17 14h35.17.260868 +0530,
50,c,46,2,186,2,,,,,655.104603499989,,655.0922228000127,655.104603499989,656.1054925000062,656.1054925000062,656.1054925000062,656.1054925000062,656.1054925000062,657.1055148000596,657.1055148000596,657.5091659000609,c,1,0.3963480999227613,None,tots,001,2024-10-17_14h35.01.876,Motor_sequence_task,2024.1.5,None,2024-10-17 14h35.17.260868 +0530,
-150,z,46,3,187,3,,,,,657.5217798000667,,657.5099012000719,657.5217798000667,658.5230843999889,658.5230843999889,658.5230843999889,658.5230843999889,658.5230843999889,659.5231645000167,659.5231645000167,660.0441048999783,z,1,0.5068568999413401,None,tots,001,2024-10-17_14h35.01.876,Motor_sequence_task,2024.1.5,None,2024-10-17 14h35.17.260868 +0530,
-50,x,47,0,188,0,,,,,660.0561095000012,,660.0447879000567,660.0561095000012,661.0570984999649,661.0570984999649,661.0570984999649,661.0570984999649,661.0570984999649,662.0575068000471,662.0575068000471,663.2945815999992,x,1,1.232423400040716,None,tots,001,2024-10-17_14h35.01.876,Motor_sequence_task,2024.1.5,None,2024-10-17 14h35.17.260868 +0530,
150,v,47,1,189,1,,,,,663.3078009000747,,663.2953289999859,663.3078009000747,664.308063399978,664.308063399978,664.308063399978,664.308063399978,664.308063399978,665.3084672000259,665.3084672000259,665.9624288000632,v,1,0.6494252000702545,None,tots,001,2024-10-17_14h35.01.876,Motor_sequence_task,2024.1.5,None,2024-10-17 14h35.17.260868 +0530,
50,c,47,2,190,2,,,,,665.9751603000332,,665.9631680999883,665.9751603000332,666.9759077000199,666.9759077000199,666.9759077000199,666.9759077000199,666.9759077000199,667.9773096999852,667.9773096999852,668.7462090000045,c,1,0.7541854999726638,None,tots,001,2024-10-17_14h35.01.876,Motor_sequence_task,2024.1.5,None,2024-10-17 14h35.17.260868 +0530,
-150,z,47,3,191,3,,,,,668.7597433000337,,668.7469221999636,668.7597433000337,669.7604693999747,669.7604693999747,669.7604693999747,669.7604693999747,669.7604693999747,670.7608998999931,670.7608998999931,672.1820005000336,z,1,1.4163182000629604,None,tots,001,2024-10-17_14h35.01.876,Motor_sequence_task,2024.1.5,None,2024-10-17 14h35.17.260868 +0530,
-50,x,48,0,192,0,,,,,672.1944464000408,,672.1827125999844,672.1944464000408,673.1954578000586,673.1954578000586,673.1954578000586,673.1954578000586,673.1954578000586,674.1961592000443,674.1961592000443,675.084338500048,x,1,0.8805693000322208,None,tots,001,2024-10-17_14h35.01.876,Motor_sequence_task,2024.1.5,None,2024-10-17 14h35.17.260868 +0530,
150,v,48,1,193,1,,,,,675.0968947999645,,675.0856445999816,675.0968947999645,676.09567900002,676.09567900002,676.09567900002,676.09567900002,676.1121693999739,677.096145199961,677.096145199961,677.8002185999649,v,1,0.7008302999893203,None,tots,001,2024-10-17_14h35.01.876,Motor_sequence_task,2024.1.5,None,2024-10-17 14h35.17.260868 +0530,
50,c,48,2,194,2,,,,,677.8130810000002,,677.8009491000557,677.8130810000002,678.813951899996,678.813951899996,678.813951899996,678.813951899996,678.813951899996,679.8147403000621,679.8147403000621,680.6351619999623,c,1,0.8053564000874758,None,tots,001,2024-10-17_14h35.01.876,Motor_sequence_task,2024.1.5,None,2024-10-17 14h35.17.260868 +0530,
-150,z,48,3,195,3,,,,,680.6485271999845,,680.6360153000569,680.6485271999845,681.6480647000717,681.6480647000717,681.6480647000717,681.6480647000717,681.6480647000717,682.6485792000312,682.6485792000312,683.7689745000098,z,1,1.1078590999823064,None,tots,001,2024-10-17_14h35.01.876,Motor_sequence_task,2024.1.5,None,2024-10-17 14h35.17.260868 +0530,
-50,x,49,0,196,0,,,,,683.7831724999705,,683.769695200026,683.7831724999705,684.7829559000675,684.7829559000675,684.7829559000675,684.7829559000675,684.7829559000675,685.783315800014,685.783315800014,686.9708271999843,x,1,1.1764947000192478,None,tots,001,2024-10-17_14h35.01.876,Motor_sequence_task,2024.1.5,None,2024-10-17 14h35.17.260868 +0530,
150,v,49,1,197,1,,,,,686.9845368000679,,686.9715419000713,686.9845368000679,687.9842336999718,687.9842336999718,687.9842336999718,687.9842336999718,687.9842336999718,688.9851945000701,688.9851945000701,689.7379809999838,v,1,0.7480481999227777,None,tots,001,2024-10-17_14h35.01.876,Motor_sequence_task,2024.1.5,None,2024-10-17 14h35.17.260868 +0530,
50,c,49,2,198,2,,,,,689.7508737000171,,689.7386996999849,689.7508737000171,690.7524673000444,690.7524673000444,690.7524673000444,690.7524673000444,690.7524673000444,691.7521285000257,691.7521285000257,692.3557509999955,c,1,0.5963068000273779,None,tots,001,2024-10-17_14h35.01.876,Motor_sequence_task,2024.1.5,None,2024-10-17 14h35.17.260868 +0530,
-150,z,49,3,199,3,,,,,692.3692807999905,,692.356488600024,692.3692807999905,693.3697450000327,693.3697450000327,693.3697450000327,693.3697450000327,693.3697450000327,694.3701533999993,694.3701533999993,694.8903584000655,z,1,0.5191125000128523,None,tots,001,2024-10-17_14h35.01.876,Motor_sequence_task,2024.1.5,None,2024-10-17 14h35.17.260868 +0530,
50,c,,,,,0,0,0,2,694.9033995000646,,694.8971820999868,694.9033995000646,695.9040453999769,695.9040453999769,695.9040453999769,695.9040453999769,695.9040453999769,696.9045402000193,696.9045402000193,697.623692400055,c,1,0.7107386999996379,None,tots,001,2024-10-17_14h35.01.876,Motor_sequence_task,2024.1.5,None,2024-10-17 14h35.17.260868 +0530,
-50,x,,,,,0,1,1,0,697.6377782999771,,697.6246564000612,697.6377782999771,698.6385673000477,698.6385673000477,698.6385673000477,698.6385673000477,698.6385673000477,699.6392083000392,699.6392083000392,700.5419644999783,x,1,0.8880993999773636,None,tots,001,2024-10-17_14h35.01.876,Motor_sequence_task,2024.1.5,None,2024-10-17 14h35.17.260868 +0530,
-150,z,,,,,0,2,2,3,700.5555989000713,,700.5428717000177,700.5555989000713,701.5563896000385,701.5563896000385,701.5563896000385,701.5563896000385,701.5563896000385,702.556914200075,702.556914200075,703.2092856999952,z,1,0.6403738999506459,None,tots,001,2024-10-17_14h35.01.876,Motor_sequence_task,2024.1.5,None,2024-10-17 14h35.17.260868 +0530,
50,c,,,,,0,3,3,2,703.2241976000369,,703.2100197999971,703.2241976000369,704.2237461999757,704.2237461999757,704.2237461999757,704.2237461999757,704.2237461999757,705.224432200077,705.224432200077,706.2454994000727,c,1,1.019844499998726,None,tots,001,2024-10-17_14h35.01.876,Motor_sequence_task,2024.1.5,None,2024-10-17 14h35.17.260868 +0530,
-50,x,,,,,1,0,4,0,706.2578495000489,,706.246342199971,706.2578495000489,707.2583221000386,707.2583221000386,707.2583221000386,707.2583221000386,707.2583221000386,708.2586319000693,708.2586319000693,709.011861099978,x,1,0.7434365999652073,None,tots,001,2024-10-17_14h35.01.876,Motor_sequence_task,2024.1.5,None,2024-10-17 14h35.17.260868 +0530,
-150,z,,,,,1,1,5,3,709.0257012000075,,709.0126166000264,709.0257012000075,710.0261279999977,710.0261279999977,710.0261279999977,710.0261279999977,710.0261279999977,711.0264570000581,711.0264570000581,711.5641653999919,z,1,0.5362832000246271,None,tots,001,2024-10-17_14h35.01.876,Motor_sequence_task,2024.1.5,None,2024-10-17 14h35.17.260868 +0530,
50,c,,,,,1,2,6,2,711.5764643000439,,711.5648482000688,711.5764643000439,712.5773687000619,712.5773687000619,712.5773687000619,712.5773687000619,712.5773687000619,713.5777474000352,713.5777474000352,714.1304866999853,c,1,0.5459675999591127,None,tots,001,2024-10-17_14h35.01.876,Motor_sequence_task,2024.1.5,None,2024-10-17 14h35.17.260868 +0530,
150,v,,,,,1,3,7,1,714.144367299974,,714.1311802000273,714.144367299974,715.1447904000524,715.1447904000524,715.1447904000524,715.1447904000524,715.1447904000524,716.1454336000606,716.1454336000606,717.1485277999891,v,1,0.9931609999621287,None,tots,001,2024-10-17_14h35.01.876,Motor_sequence_task,2024.1.5,None,2024-10-17 14h35.17.260868 +0530,
50,c,,,,,2,0,8,2,717.1624979999615,,717.1492177000036,717.1624979999615,718.1623056000099,718.1623056000099,718.1623056000099,718.1623056000099,718.1623056000099,719.1628062999807,719.1628062999807,719.6833015000448,c,1,0.5174167999066412,None,tots,001,2024-10-17_14h35.01.876,Motor_sequence_task,2024.1.5,None,2024-10-17 14h35.17.260868 +0530,
-150,z,,,,,2,1,9,3,719.696665000054,,719.6839982999954,719.696665000054,720.6973692000611,720.6973692000611,720.6973692000611,720.6973692000611,720.6973692000611,721.6976095000282,721.6976095000282,722.201048500021,z,1,0.48670360003598034,None,tots,001,2024-10-17_14h35.01.876,Motor_sequence_task,2024.1.5,None,2024-10-17 14h35.17.260868 +0530,
-50,x,,,,,2,2,10,0,722.2144636000739,,722.202056500013,722.2144636000739,723.2162203000626,723.2162203000626,723.2162203000626,723.2162203000626,723.2162203000626,724.2145402000751,724.2145402000751,724.6028901999816,x,1,0.385929899988696,None,tots,001,2024-10-17_14h35.01.876,Motor_sequence_task,2024.1.5,None,2024-10-17 14h35.17.260868 +0530,
50,c,,,,,2,3,11,2,724.6154058000538,,724.6037706000498,724.6154058000538,725.6153379000025,725.6153379000025,725.6153379000025,725.6153379000025,725.6153379000025,726.6155602000654,726.6155602000654,727.0351782999933,c,1,0.4033492000307888,None,tots,001,2024-10-17_14h35.01.876,Motor_sequence_task,2024.1.5,None,2024-10-17 14h35.17.260868 +0530,
-150,z,,,,,3,0,12,3,727.0490224000532,,727.0358973999973,727.0490224000532,728.0500532999868,728.0500532999868,728.0500532999868,728.0500532999868,728.0500532999868,729.0504183999728,729.0504183999728,729.436853799969,z,1,0.379166999948211,None,tots,001,2024-10-17_14h35.01.876,Motor_sequence_task,2024.1.5,None,2024-10-17 14h35.17.260868 +0530,
150,v,,,,,3,1,13,1,729.4504777999828,,729.437574999989,729.4504777999828,730.451121799997,730.451121799997,730.451121799997,730.451121799997,730.451121799997,731.4514992000768,731.4514992000768,731.8559890000615,v,1,0.3954577000113204,None,tots,001,2024-10-17_14h35.01.876,Motor_sequence_task,2024.1.5,None,2024-10-17 14h35.17.260868 +0530,
50,c,,,,,3,2,14,2,731.8688029999612,,731.8572135000722,731.8688029999612,732.868799500051,732.868799500051,732.868799500051,732.868799500051,732.868799500051,733.8689104999648,733.8689104999648,734.2386996999849,c,1,0.363344999961555,None,tots,001,2024-10-17_14h35.01.876,Motor_sequence_task,2024.1.5,None,2024-10-17 14h35.17.260868 +0530,
-150,z,,,,,3,3,15,3,734.2527259000344,,734.2394214000087,734.2527259000344,735.2528858999722,735.2528858999722,735.2528858999722,735.2528858999722,735.2528858999722,736.2533902999712,736.2533902999712,736.6740375000518,z,1,0.4078426999039948,None,tots,001,2024-10-17_14h35.01.876,Motor_sequence_task,2024.1.5,None,2024-10-17 14h35.17.260868 +0530,
-150,z,,,,,4,0,16,3,736.6864940000232,,736.6747899999609,736.6864940000232,737.687796400045,737.687796400045,737.687796400045,737.687796400045,737.687796400045,738.6877450000029,738.6877450000029,739.0402942000655,z,1,0.34408489998895675,None,tots,001,2024-10-17_14h35.01.876,Motor_sequence_task,2024.1.5,None,2024-10-17 14h35.17.260868 +0530,
50,c,,,,,4,1,17,2,739.0538683000486,,739.0413011000492,739.0538683000486,740.05480849999,740.05480849999,740.05480849999,740.05480849999,740.05480849999,741.0552115000319,741.0552115000319,741.4418628000421,v,0,0.37054269993677735,None,tots,001,2024-10-17_14h35.01.876,Motor_sequence_task,2024.1.5,None,2024-10-17 14h35.17.260868 +0530,
-150,z,,,,,4,2,18,3,741.4551008000271,,741.4426098000258,741.4551008000271,742.4550611000741,742.4550611000741,742.4550611000741,742.4550611000741,742.4550611000741,743.4557955999626,743.4557955999626,744.0256421000231,z,1,0.5549791000084952,None,tots,001,2024-10-17_14h35.01.876,Motor_sequence_task,2024.1.5,None,2024-10-17 14h35.17.260868 +0530,
-50,x,,,,,4,3,19,0,744.0393708000192,,744.0263825000729,744.0393708000192,745.0399218000239,745.0399218000239,745.0399218000239,745.0399218000239,745.0399218000239,746.0409886999987,746.0409886999987,746.5936172000365,x,1,0.5461606000317261,None,tots,001,2024-10-17_14h35.01.876,Motor_sequence_task,2024.1.5,None,2024-10-17 14h35.17.260868 +0530,
50,c,,,,,5,0,20,2,746.6067409999669,,746.5943281999789,746.6067409999669,747.6069826000603,747.6069826000603,747.6069826000603,747.6069826000603,747.6069826000603,748.6078997000586,748.6078997000586,749.1442627999932,c,1,0.529744999948889,None,tots,001,2024-10-17_14h35.01.876,Motor_sequence_task,2024.1.5,None,2024-10-17 14h35.17.260868 +0530,
-50,x,,,,,5,1,21,0,749.1583282999927,,749.1449807999888,749.1583282999927,750.1584854000248,750.1584854000248,750.1584854000248,750.1584854000248,750.1584854000248,751.1587983999634,751.1587983999634,751.6466368000256,x,1,0.48430819995701313,None,tots,001,2024-10-17_14h35.01.876,Motor_sequence_task,2024.1.5,None,2024-10-17 14h35.17.260868 +0530,
50,c,,,,,5,2,22,2,751.6590679000365,,751.6473976999987,751.6590679000365,752.6603166999994,752.6603166999994,752.6603166999994,752.6603166999994,752.6603166999994,753.6594983000541,753.6594983000541,754.1461397999665,c,1,0.4742491999641061,None,tots,001,2024-10-17_14h35.01.876,Motor_sequence_task,2024.1.5,None,2024-10-17 14h35.17.260868 +0530,
50,c,,,,,5,3,23,2,754.1599184999941,,754.146857200074,754.1599184999941,755.1611688999692,755.1611688999692,755.1611688999692,755.1611688999692,755.1611688999692,756.1607605000027,756.1607605000027,756.6641653999686,c,1,0.49778540001716465,None,tots,001,2024-10-17_14h35.01.876,Motor_sequence_task,2024.1.5,None,2024-10-17 14h35.17.260868 +0530,
-50,x,,,,,6,0,24,0,756.6774823999731,,756.6649086000398,756.6774823999731,757.6779937000247,757.6779937000247,757.6779937000247,757.6779937000247,757.6779937000247,758.6783958000597,758.6783958000597,759.315388499992,x,1,0.6337063999380916,None,tots,001,2024-10-17_14h35.01.876,Motor_sequence_task,2024.1.5,None,2024-10-17 14h35.17.260868 +0530,
-50,x,,,,,6,1,25,0,759.3287165999645,,759.316128800041,759.3287165999645,760.329170800047,760.329170800047,760.329170800047,760.329170800047,760.329170800047,761.3293678000337,761.3293678000337,761.766157999984,x,1,0.43303329998161644,None,tots,001,2024-10-17_14h35.01.876,Motor_sequence_task,2024.1.5,None,2024-10-17 14h35.17.260868 +0530,
150,v,,,,,6,2,26,1,761.7793983999873,,761.7668978000293,761.7793983999873,762.7803679000353,762.7803679000353,762.7803679000353,762.7803679000353,762.7803679000353,763.7801458999747,763.7801458999747,764.2669946000678,c,0,0.47630340000614524,None,tots,001,2024-10-17_14h35.01.876,Motor_sequence_task,2024.1.5,None,2024-10-17 14h35.17.260868 +0530,
-50,x,,,,,6,3,27,0,764.28040649998,,764.2677267000545,764.28040649998,765.2809269999852,765.2809269999852,765.2809269999852,765.2809269999852,765.2809269999852,766.2814973000204,766.2814973000204,766.7347983999643,x,1,0.44769820000510663,None,tots,001,2024-10-17_14h35.01.876,Motor_sequence_task,2024.1.5,None,2024-10-17 14h35.17.260868 +0530,
-150,z,,,,,7,0,28,3,766.7482787000481,,766.7355332999723,766.7482787000481,767.7488996000029,767.7488996000029,767.7488996000029,767.7488996000029,767.7488996000029,768.7490717000328,768.7490717000328,769.1859185000649,z,1,0.431671499973163,None,tots,001,2024-10-17_14h35.01.876,Motor_sequence_task,2024.1.5,None,2024-10-17 14h35.17.260868 +0530,
150,v,,,,,7,1,29,1,769.1989686000161,,769.1866503000492,769.1989686000161,770.199698899989,770.199698899989,770.199698899989,770.199698899989,770.199698899989,771.2001438000007,771.2001438000007,771.6531627000077,v,1,0.4459932000609115,None,tots,001,2024-10-17_14h35.01.876,Motor_sequence_task,2024.1.5,None,2024-10-17 14h35.17.260868 +0530,
150,v,,,,,7,2,30,1,771.6669463000726,,771.6538507000078,771.6669463000726,772.6675566000631,772.6675566000631,772.6675566000631,772.6675566000631,772.6675566000631,773.6675654000137,773.6675654000137,774.154423500062,v,1,0.4845564999850467,None,tots,001,2024-10-17_14h35.01.876,Motor_sequence_task,2024.1.5,None,2024-10-17 14h35.17.260868 +0530,
50,c,,,,,7,3,31,2,774.1675460999832,,774.1551170999883,774.1675460999832,775.1682457000716,775.1682457000716,775.1682457000716,775.1682457000716,775.1682457000716,776.1688500000164,776.1688500000164,776.621670100023,c,1,0.43602409993764013,None,tots,001,2024-10-17_14h35.01.876,Motor_sequence_task,2024.1.5,None,2024-10-17 14h35.17.260868 +0530,
-150,z,,,,,8,0,32,3,776.6353806999978,,776.6223745000316,776.6353806999978,777.6368135999655,777.6368135999655,777.6368135999655,777.6368135999655,777.6368135999655,778.637531699962,778.637531699962,779.0577566999709,z,1,0.41047619993332773,None,tots,001,2024-10-17_14h35.01.876,Motor_sequence_task,2024.1.5,None,2024-10-17 14h35.17.260868 +0530,
50,c,,,,,8,1,33,2,779.0701450000051,,779.0584731000708,779.0701450000051,780.0703119999962,780.0703119999962,780.0703119999962,780.0703119999962,780.0703119999962,781.0708163999952,781.0708163999952,781.6075752000324,c,1,0.5214871000498533,None,tots,001,2024-10-17_14h35.01.876,Motor_sequence_task,2024.1.5,None,2024-10-17 14h35.17.260868 +0530,
-150,z,,,,,8,2,34,3,781.6204889999935,,781.6083010999719,781.6204889999935,782.6220163999824,782.6220163999824,782.6220163999824,782.6220163999824,782.6220163999824,783.6223296000389,783.6223296000389,784.2914309999906,z,1,0.6566686000442132,None,tots,001,2024-10-17_14h35.01.876,Motor_sequence_task,2024.1.5,None,2024-10-17 14h35.17.260868 +0530,
150,v,,,,,8,3,35,1,784.3057827000739,,784.2921602000715,784.3057827000739,785.3054717000341,785.3054717000341,785.3054717000341,785.3054717000341,785.3054717000341,786.3057511000661,786.3057511000661,786.9597181000281,v,1,0.6503887999569997,None,tots,001,2024-10-17_14h35.01.876,Motor_sequence_task,2024.1.5,None,2024-10-17 14h35.17.260868 +0530,
-150,z,,,,,9,0,36,3,786.9732611000072,,786.9604565000627,786.9732611000072,787.973319199984,787.973319199984,787.973319199984,787.973319199984,787.973319199984,788.9741455999902,788.9741455999902,789.4432765999809,z,1,0.4680417999625206,None,tots,001,2024-10-17_14h35.01.876,Motor_sequence_task,2024.1.5,None,2024-10-17 14h35.17.260868 +0530,
-150,z,,,,,9,1,37,3,789.4566509000724,,789.4439708000282,789.4566509000724,790.4574357999954,790.4574357999954,790.4574357999954,790.4574357999954,790.4574357999954,791.4582993000513,791.4582993000513,791.995374900056,z,1,0.5314091000473127,None,tots,001,2024-10-17_14h35.01.876,Motor_sequence_task,2024.1.5,None,2024-10-17 14h35.17.260868 +0530,
150,v,,,,,9,2,38,1,792.0081796000013,,791.996242800029,792.0081796000013,793.0089136000024,793.0089136000024,793.0089136000024,793.0089136000024,793.0089136000024,794.0091807000572,794.0091807000572,794.4954069000669,v,1,0.4730950000230223,None,tots,001,2024-10-17_14h35.01.876,Motor_sequence_task,2024.1.5,None,2024-10-17 14h35.17.260868 +0530,
50,c,,,,,9,3,39,2,794.509234600002,,794.496142399963,794.509234600002,795.5094961000141,795.5094961000141,795.5094961000141,795.5094961000141,795.5094961000141,796.5103234000271,796.5103234000271,797.1304443000117,c,1,0.6080921000102535,None,tots,001,2024-10-17_14h35.01.876,Motor_sequence_task,2024.1.5,None,2024-10-17 14h35.17.260868 +0530,
-150,z,,,,,10,0,40,3,797.143841000041,,797.1311374000506,797.143841000041,798.143533000024,798.143533000024,798.143533000024,798.143533000024,798.143533000024,799.1443227999844,799.1443227999844,799.6483374000527,z,1,0.49166559998411685,None,tots,001,2024-10-17_14h35.01.876,Motor_sequence_task,2024.1.5,None,2024-10-17 14h35.17.260868 +0530,
150,v,,,,,10,1,41,1,799.6612813000102,,799.6490615999792,799.6612813000102,800.6620043000439,800.6620043000439,800.6620043000439,800.6620043000439,800.6620043000439,801.6638479999965,801.6638479999965,802.1999847000698,v,1,0.5242897999705747,None,tots,001,2024-10-17_14h35.01.876,Motor_sequence_task,2024.1.5,None,2024-10-17 14h35.17.260868 +0530,
150,v,,,,,10,2,42,1,802.2121174000204,,802.2006716000615,802.2121174000204,803.2129968999652,803.2129968999652,803.2129968999652,803.2129968999652,803.2129968999652,804.2127003000351,804.2127003000351,804.7161633999785,v,1,0.48641070001758635,None,tots,001,2024-10-17_14h35.01.876,Motor_sequence_task,2024.1.5,None,2024-10-17 14h35.17.260868 +0530,
150,v,,,,,10,3,43,1,804.7297444000142,,804.716854600003,804.7297444000142,805.7301062999759,805.7301062999759,805.7301062999759,805.7301062999759,805.7301062999759,806.7306967000477,806.7306967000477,807.1336579000344,v,1,0.39612389996182173,None,tots,001,2024-10-17_14h35.01.876,Motor_sequence_task,2024.1.5,None,2024-10-17 14h35.17.260868 +0530,
-150,z,,,,,11,0,44,3,807.1472788000247,,807.1343985999702,807.1472788000247,808.1479267000686,808.1479267000686,808.1479267000686,808.1479267000686,808.1479267000686,809.147942700074,809.147942700074,810.0692926000338,z,1,0.9055930000031367,None,tots,001,2024-10-17_14h35.01.876,Motor_sequence_task,2024.1.5,None,2024-10-17 14h35.17.260868 +0530,
-50,x,,,,,11,1,45,0,810.0825784000335,,810.0702006999636,810.0825784000335,811.0826590000652,811.0826590000652,811.0826590000652,811.0826590000652,811.0826590000652,812.082942500012,812.082942500012,812.7027451000176,x,1,0.6157733000582084,None,tots,001,2024-10-17_14h35.01.876,Motor_sequence_task,2024.1.5,None,2024-10-17 14h35.17.260868 +0530,
-150,z,,,,,11,2,46,3,812.7165377000347,,812.7034817000385,812.7165377000347,813.7170414000284,813.7170414000284,813.7170414000284,813.7170414000284,813.7170414000284,814.7172575000441,814.7172575000441,815.4041347000748,z,1,0.6832409000489861,None,tots,001,2024-10-17_14h35.01.876,Motor_sequence_task,2024.1.5,None,2024-10-17 14h35.17.260868 +0530,
50,c,,,,,11,3,47,2,815.417428500019,,815.404852900072,815.417428500019,816.4177795000141,816.4177795000141,816.4177795000141,816.4177795000141,816.4177795000141,817.418009200017,817.418009200017,818.1718664000509,c,1,0.7479872000403702,None,tots,001,2024-10-17_14h35.01.876,Motor_sequence_task,2024.1.5,None,2024-10-17 14h35.17.260868 +0530,
150,v,,,,,12,0,48,1,818.1849648000207,,818.1725609999849,818.1849648000207,819.1853159000166,819.1853159000166,819.1853159000166,819.1853159000166,819.1853159000166,820.1859408000018,820.1859408000018,820.6736232000403,v,1,0.4859599999617785,None,tots,001,2024-10-17_14h35.01.876,Motor_sequence_task,2024.1.5,None,2024-10-17 14h35.17.260868 +0530,
50,c,,,,,12,1,49,2,820.6860198000213,,820.6748174000531,820.6860198000213,821.686711300048,821.686711300048,821.686711300048,821.686711300048,821.686711300048,822.6873179000104,822.6873179000104,823.1902670999989,c,1,0.494970400002785,None,tots,001,2024-10-17_14h35.01.876,Motor_sequence_task,2024.1.5,None,2024-10-17 14h35.17.260868 +0530,
50,c,,,,,12,2,50,2,823.2036966000451,,823.1909588000271,823.2036966000451,824.2036729999818,824.2036729999818,824.2036729999818,824.2036729999818,824.2036729999818,825.2048339999747,825.2048339999747,825.7243454999989,c,1,0.5088066000025719,None,tots,001,2024-10-17_14h35.01.876,Motor_sequence_task,2024.1.5,None,2024-10-17 14h35.17.260868 +0530,
-150,z,,,,,12,3,51,3,825.7379270000383,,825.725084100035,825.7379270000383,826.7384534999728,826.7384534999728,826.7384534999728,826.7384534999728,826.7384534999728,827.7391838000622,827.7391838000622,828.2256635000231,z,1,0.48258670000359416,None,tots,001,2024-10-17_14h35.01.876,Motor_sequence_task,2024.1.5,None,2024-10-17 14h35.17.260868 +0530,
-150,z,,,,,13,0,52,3,828.2400546000572,,828.2263639000012,828.2400546000572,829.2393938000314,829.2393938000314,829.2393938000314,829.2393938000314,829.2562401000177,830.2396757999668,830.2396757999668,830.8264357000589,z,1,0.5729459999129176,None,tots,001,2024-10-17_14h35.01.876,Motor_sequence_task,2024.1.5,None,2024-10-17 14h35.17.260868 +0530,
50,c,,,,,13,1,53,2,830.8401589000132,,830.8271498000249,830.8401589000132,831.8408719999716,831.8408719999716,831.8408719999716,831.8408719999716,831.8408719999716,832.8408544000704,832.8408544000704,833.4776666000253,c,1,0.6286953999660909,None,tots,001,2024-10-17_14h35.01.876,Motor_sequence_task,2024.1.5,None,2024-10-17 14h35.17.260868 +0530,
-50,x,,,,,13,2,54,0,833.4910820999648,,833.4783998000203,833.4910820999648,834.4914918000577,834.4914918000577,834.4914918000577,834.4914918000577,834.4914918000577,835.4917722999817,835.4917722999817,836.1624421000015,x,1,0.6651583999628201,None,tots,001,2024-10-17_14h35.01.876,Motor_sequence_task,2024.1.5,None,2024-10-17 14h35.17.260868 +0530,
-50,x,,,,,13,3,55,0,836.175409700023,,836.163133700029,836.175409700023,837.1756970999995,837.1756970999995,837.1756970999995,837.1756970999995,837.1756970999995,838.176273399964,838.176273399964,838.7467379000736,x,1,0.5694601000286639,None,tots,001,2024-10-17_14h35.01.876,Motor_sequence_task,2024.1.5,None,2024-10-17 14h35.17.260868 +0530,
150,v,,,,,14,0,56,1,838.7598861000733,,838.7474457999924,838.7598861000733,839.7598308000015,839.7598308000015,839.7598308000015,839.7598308000015,839.7598308000015,840.760146799963,840.760146799963,840.8137718000216,z,0,0.03822109999600798,None,tots,001,2024-10-17_14h35.01.876,Motor_sequence_task,2024.1.5,None,2024-10-17 14h35.17.260868 +0530,
-50,x,,,,,14,1,57,0,840.8269732999615,,840.8144948000554,840.8269732999615,841.8274705000222,841.8274705000222,841.8274705000222,841.8274705000222,841.8274705000222,842.8276378000155,842.8276378000155,843.4647274999879,x,1,0.6258214999688789,None,tots,001,2024-10-17_14h35.01.876,Motor_sequence_task,2024.1.5,None,2024-10-17 14h35.17.260868 +0530,
150,v,,,,,14,2,58,1,843.478985200054,,843.4654110000702,843.478985200054,844.4787592999637,844.4787592999637,844.4787592999637,844.4787592999637,844.4787592999637,845.4788666999666,845.4788666999666,845.9989929000149,v,1,0.5049253999022767,None,tots,001,2024-10-17_14h35.01.876,Motor_sequence_task,2024.1.5,None,2024-10-17 14h35.17.260868 +0530,
50,c,,,,,14,3,59,2,846.0126126999967,,845.9997040000744,846.0126126999967,847.0129123000661,847.0129123000661,847.0129123000661,847.0129123000661,847.0129123000661,848.0138002000749,848.0138002000749,848.53464540001,c,1,0.5110255999024957,None,tots,001,2024-10-17_14h35.01.876,Motor_sequence_task,2024.1.5,None,2024-10-17 14h35.17.260868 +0530,
-150,z,,,,,15,0,60,3,848.5469158999622,,848.5353395000566,848.5469158999622,849.547753800056,849.547753800056,849.547753800056,849.547753800056,849.547753800056,850.5479691000655,850.5479691000655,851.0517610000679,z,1,0.5019129000138491,None,tots,001,2024-10-17_14h35.01.876,Motor_sequence_task,2024.1.5,None,2024-10-17 14h35.17.260868 +0530,
-50,x,,,,,15,1,61,0,851.0644938000478,,851.0524661999661,851.0644938000478,852.0648326000664,852.0648326000664,852.0648326000664,852.0648326000664,852.0648326000664,853.0660487000132,853.0660487000132,853.6196347000077,x,1,0.5440945000154898,None,tots,001,2024-10-17_14h35.01.876,Motor_sequence_task,2024.1.5,None,2024-10-17 14h35.17.260868 +0530,
-50,x,,,,,15,2,62,0,853.6323188999668,,853.6203286000527,853.6323188999668,854.6326573999831,854.6326573999831,854.6326573999831,854.6326573999831,854.6326573999831,855.6334351999685,855.6334351999685,856.019673999981,x,1,0.37134820001665503,None,tots,001,2024-10-17_14h35.01.876,Motor_sequence_task,2024.1.5,None,2024-10-17 14h35.17.260868 +0530,
50,c,,,,,15,3,63,2,856.0332253000233,,856.0204029000597,856.0332253000233,857.0345846000127,857.0345846000127,857.0345846000127,857.0345846000127,857.0345846000127,858.0343490999658,858.0343490999658,858.6399636999704,c,1,0.5975206999573857,None,tots,001,2024-10-17_14h35.01.876,Motor_sequence_task,2024.1.5,None,2024-10-17 14h35.17.260868 +0530,
150,v,,,,,16,0,64,1,858.6510685000103,,858.6412402000278,858.6510685000103,859.651359600015,859.651359600015,859.651359600015,859.651359600015,859.651359600015,860.6518244000617,860.6518244000617,861.2048252000241,v,1,0.5396852000849321,None,tots,001,2024-10-17_14h35.01.876,Motor_sequence_task,2024.1.5,None,2024-10-17 14h35.17.260868 +0530,
-50,x,,,,,16,1,65,0,861.2185684000142,,861.2055621000472,861.2185684000142,862.2190904000308,862.2190904000308,862.2190904000308,862.2190904000308,862.2190904000308,863.2193295999896,863.2193295999896,863.9417878000531,x,1,0.7136984000680968,None,tots,001,2024-10-17_14h35.01.876,Motor_sequence_task,2024.1.5,None,2024-10-17 14h35.17.260868 +0530,
150,v,,,,,16,2,66,1,863.9531998999882,,863.9430018999847,863.9531998999882,864.953172700014,864.953172700014,864.953172700014,864.953172700014,864.953172700014,865.9539149999619,865.9539149999619,866.4564914000221,v,1,0.4960765999276191,None,tots,001,2024-10-17_14h35.01.876,Motor_sequence_task,2024.1.5,None,2024-10-17 14h35.17.260868 +0530,
150,v,,,,,16,3,67,1,866.470628399984,,866.4572414000286,866.470628399984,867.4707359999884,867.4707359999884,867.4707359999884,867.4707359999884,867.4707359999884,868.4718159000622,868.4718159000622,869.0910679000663,v,1,0.6082695999648422,None,tots,001,2024-10-17_14h35.01.876,Motor_sequence_task,2024.1.5,None,2024-10-17 14h35.17.260868 +0530,
-50,x,,,,,17,0,68,0,869.1047780000372,,869.091761299991,869.1047780000372,870.1054621000076,870.1054621000076,870.1054621000076,870.1054621000076,870.1054621000076,871.1061628999887,871.1061628999887,871.7260551999789,x,1,0.6152838000562042,None,tots,001,2024-10-17_14h35.01.876,Motor_sequence_task,2024.1.5,None,2024-10-17 14h35.17.260868 +0530,
-50,x,,,,,17,1,69,0,871.7405645999825,,871.7267834000522,871.7405645999825,872.74055029999,872.74055029999,872.74055029999,872.74055029999,872.74055029999,873.740808099974,873.740808099974,874.3610052000731,x,1,0.6124343998963013,None,tots,001,2024-10-17_14h35.01.876,Motor_sequence_task,2024.1.5,None,2024-10-17 14h35.17.260868 +0530,
150,v,,,,,17,2,70,1,874.3733045000117,,874.3622535000322,874.3733045000117,875.3740307000699,875.3740307000699,875.3740307000699,875.3740307000699,875.3740307000699,876.3744463999756,876.3744463999756,877.0292047000257,v,1,0.640889799920842,None,tots,001,2024-10-17_14h35.01.876,Motor_sequence_task,2024.1.5,None,2024-10-17 14h35.17.260868 +0530,
150,v,,,,,17,3,71,1,877.0412632999942,,877.029889700003,877.0412632999942,878.0417432000395,878.0417432000395,878.0417432000395,878.0417432000395,878.0417432000395,879.0424225999741,879.0424225999741,879.5816348000662,v,1,0.5365587000269443,None,tots,001,2024-10-17_14h35.01.876,Motor_sequence_task,2024.1.5,None,2024-10-17 14h35.17.260868 +0530,
50,c,,,,,18,0,72,2,879.592843899969,,879.5824464000762,879.592843899969,880.592534400057,880.592534400057,880.592534400057,880.592534400057,880.592534400057,881.5933279000456,881.5933279000456,882.0129141999641,c,1,0.4157785999123007,None,tots,001,2024-10-17_14h35.01.876,Motor_sequence_task,2024.1.5,None,2024-10-17 14h35.17.260868 +0530,
150,v,,,,,18,1,73,1,882.0265952000627,,882.0136936999625,882.0265952000627,883.0279168999987,883.0279168999987,883.0279168999987,883.0279168999987,883.0279168999987,884.027750600013,884.027750600013,884.6309859000612,v,1,0.5976983000291511,None,tots,001,2024-10-17_14h35.01.876,Motor_sequence_task,2024.1.5,None,2024-10-17 14h35.17.260868 +0530,
150,v,,,,,18,2,74,1,884.6445699000033,,884.6317209000699,884.6445699000033,885.6449864000315,885.6449864000315,885.6449864000315,885.6449864000315,885.6449864000315,886.6454744000221,886.6454744000221,887.4991211000597,v,1,0.838569900020957,None,tots,001,2024-10-17_14h35.01.876,Motor_sequence_task,2024.1.5,None,2024-10-17 14h35.17.260868 +0530,
150,v,,,,,18,3,75,1,887.5134272000287,,887.4998002999928,887.5134272000287,888.5127628999762,888.5127628999762,888.5127628999762,888.5127628999762,888.5127628999762,889.5140494999941,889.5140494999941,890.1515455000335,v,1,0.6294387000380084,None,tots,001,2024-10-17_14h35.01.876,Motor_sequence_task,2024.1.5,None,2024-10-17 14h35.17.260868 +0530,
50,c,,,,,19,0,76,2,890.16338370007,,890.1522816000506,890.16338370007,891.1634333999828,891.1634333999828,891.1634333999828,891.1634333999828,891.1634333999828,892.1638563000597,892.1638563000597,894.4850450999802,c,1,2.31987270002719,None,tots,001,2024-10-17_14h35.01.876,Motor_sequence_task,2024.1.5,None,2024-10-17 14h35.17.260868 +0530,
-150,z,,,,,19,1,77,3,894.4981156999711,,894.485990999965,894.4981156999711,895.4990082000149,895.4990082000149,895.4990082000149,895.4990082000149,895.4990082000149,896.499064899981,896.499064899981,899.9535920000635,z,1,3.4425999000668526,None,tots,001,2024-10-17_14h35.01.876,Motor_sequence_task,2024.1.5,None,2024-10-17 14h35.17.260868 +0530,
150,v,,,,,19,2,78,1,899.9683740000473,,899.9543185000075,899.9683740000473,900.9675348000601,900.9675348000601,900.9675348000601,900.9675348000601,900.9675348000601,901.9681012000656,901.9681012000656,902.4563526000129,v,1,0.4834100999869406,None,tots,001,2024-10-17_14h35.01.876,Motor_sequence_task,2024.1.5,None,2024-10-17 14h35.17.260868 +0530,
-50,x,,,,,19,3,79,0,902.4675982999615,,902.4575375000713,902.4675982999615,903.4694444000488,903.4694444000488,903.4694444000488,903.4694444000488,903.4694444000488,904.4695826000534,904.4695826000534,905.7554466000292,x,1,1.2820204999297857,None,tots,001,2024-10-17_14h35.01.876,Motor_sequence_task,2024.1.5,None,2024-10-17 14h35.17.260868 +0530,
150,v,,,,,20,0,80,1,905.7696255999617,,905.7561303999973,905.7696255999617,906.7698777000187,906.7698777000187,906.7698777000187,906.7698777000187,906.7698777000187,907.7704445000272,907.7704445000272,908.2736179999774,v,1,0.49785899999551475,None,tots,001,2024-10-17_14h35.01.876,Motor_sequence_task,2024.1.5,None,2024-10-17 14h35.17.260868 +0530,
50,c,,,,,20,1,81,2,908.2866795000155,,908.2743445000378,908.2866795000155,909.2883430999937,909.2883430999937,909.2883430999937,909.2883430999937,909.2883430999937,910.2881569999736,910.2881569999736,910.8081041000551,c,1,0.5162672000005841,None,tots,001,2024-10-17_14h35.01.876,Motor_sequence_task,2024.1.5,None,2024-10-17 14h35.17.260868 +0530,
150,v,,,,,20,2,82,1,910.8214104999788,,910.8088320000097,910.8214104999788,911.8216569999931,911.8216569999931,911.8216569999931,911.8216569999931,911.8216569999931,912.8222207999788,912.8222207999788,913.3087305000518,v,1,0.4726469999877736,None,tots,001,2024-10-17_14h35.01.876,Motor_sequence_task,2024.1.5,None,2024-10-17 14h35.17.260868 +0530,
150,v,,,,,20,3,83,1,913.3233009000542,,913.309455199982,913.3233009000542,914.3228379000211,914.3228379000211,914.3228379000211,914.3228379000211,914.3228379000211,915.3236499000341,915.3236499000341,915.7762561000418,v,1,0.44634609995409846,None,tots,001,2024-10-17_14h35.01.876,Motor_sequence_task,2024.1.5,None,2024-10-17 14h35.17.260868 +0530,
